AccX,AccY,AccZ,GyrX,GyrY,GyrZ,Time
1.2,-6.09,12.32,-0.2,0.04,0.16,1721200925665
2.43,-0.64,16.31,0.03,0.22,0.06,1721200925670
4.86,-2.85,5.6,-0.11,-0.0,-0.25,1721200925680
-1.93,3.71,12.61,-0.1,0.0,-0.57,1721200925690
-3.59,1.64,12.19,-0.02,0.07,-0.47,1721200925700
-4.05,-4.04,9.68,-0.11,-0.05,0.01,1721200925710
-1.96,-4.46,8.65,-0.09,-0.03,0.1,1721200925720
1.46,-0.92,12.47,-0.14,0.29,0.01,1721200925730
0.7,2.77,9.1,0.1,0.1,-0.38,1721200925740
-1.07,0.52,11.13,-0.09,0.11,-0.5,1721200925750
-5.95,0.45,8.32,0.13,-0.14,0.06,1721200925760
1.48,2.28,18.3,-0.15,0.51,0.34,1721200925770
3.92,3.33,13.93,0.18,-0.41,0.1,1721200925780
0.22,2.2,0.27,-0.2,0.04,-0.31,1721200925790
-1.06,-2.09,18.65,-0.14,0.12,-0.51,1721200925800
-5.42,1.37,7.06,0.29,-0.23,-0.14,1721200925810
-3.49,-4.85,5.17,-0.09,0.26,0.25,1721200925820
-0.06,-1.6,13.25,0.0,-0.06,0.17,1721200925830
2.34,9.05,11.34,0.28,0.16,0.01,1721200925840
4.43,5.03,10.57,-0.06,0.14,-0.38,1721200925850
-2.58,1.31,15.43,-0.01,-0.35,-0.35,1721200925860
-3.63,-8.65,7.2,-0.02,0.01,-0.18,1721200925870
-2.86,-4.44,9.43,0.04,0.06,0.04,1721200925880
-1.61,7.38,8.88,0.18,0.05,0.02,1721200925890
2.56,1.55,12.67,0.03,0.08,-0.04,1721200925900
-0.91,0.68,3.91,0.21,-0.11,-0.29,1721200925910
3.67,-5.36,16.12,-0.39,0.53,-0.43,1721200925920
-1.66,6.5,21.54,0.24,-0.41,-0.33,1721200925930
-4.29,1.95,1.36,0.05,0.14,-0.2,1721200925940
-4.22,-0.56,10.61,0.23,-0.02,0.07,1721200925950
0.42,1.47,7.68,0.17,0.12,0.27,1721200925960
2.19,1.02,12.63,0.07,-0.13,0.08,1721200925970
-0.85,3.93,3.35,0.11,-0.09,-0.32,1721200925980
-1.2,2.88,9.32,-0.06,0.17,-0.3,1721200925990
-0.32,-5.03,16.2,-0.01,0.07,0.05,1721200926000
0.72,-2.44,8.27,0.09,-0.15,0.31,1721200926010
1.1,8.03,15.08,0.02,0.19,-0.11,1721200926020
0.45,5.2,3.08,0.13,-0.28,-0.19,1721200926030
-1.3,-1.88,17.78,-0.19,0.4,-0.26,1721200926040
-2.09,2.47,8.98,0.45,-0.25,0.31,1721200926050
2.29,0.64,7.49,-0.2,0.36,0.24,1721200926060
2.34,4.92,20.23,0.01,-0.02,-0.22,1721200926070
-3.81,-0.31,0.28,0.13,-0.44,-0.14,1721200926080
-3.98,-3.11,10.87,-0.28,0.33,0.04,1721200926090
-1.08,2.1,14.17,0.13,-0.1,0.34,1721200926100
0.77,2.19,-2.08,-0.25,-0.05,0.12,1721200926110
1.12,-1.68,13.17,-0.26,-0.0,-0.23,1721200926120
-0.66,-1.19,17.72,-0.06,-0.01,-0.16,1721200926130
-1.38,-2.76,6.93,-0.03,-0.14,0.19,1721200926140
-0.44,-3.41,8.39,-0.11,0.1,-0.01,1721200926150
0.56,5.28,13.88,0.14,0.06,-0.05,1721200926160
1.07,3.41,6.34,0.07,-0.06,0.15,1721200926170
2.02,-1.51,11.23,-0.2,0.02,0.02,1721200926180
0.91,-3.21,15.22,-0.06,-0.09,-0.16,1721200926190
-0.15,3.86,3.7,0.06,0.0,-0.15,1721200926200
-0.31,0.82,12.39,-0.23,0.06,-0.04,1721200926210
0.38,-2.18,12.14,0.08,-0.19,0.16,1721200926220
4.24,3.44,8.1,0.01,0.42,-0.06,1721200926230
3.86,-0.21,14.26,-0.12,0.04,-0.41,1721200926240
-5.28,0.15,11.22,-0.0,-0.23,-0.42,1721200926250
-3.3,-1.14,9.74,0.01,0.26,-0.04,1721200926260
2.93,-1.52,12.17,0.1,0.05,0.35,1721200926270
4.24,1.19,9.78,0.09,0.11,0.05,1721200926280
-0.64,5.07,12.93,0.04,0.05,-0.49,1721200926290
-3.18,3.51,12.06,0.11,0.16,-0.37,1721200926300
-2.46,-6.76,4.25,-0.02,-0.03,0.05,1721200926310
-1.59,1.28,14.9,0.12,0.12,0.15,1721200926320
3.31,5.09,9.8,0.26,0.18,0.08,1721200926330
1.24,0.82,9.31,0.05,0.03,-0.28,1721200926340
-1.64,-5.56,9.97,-0.02,-0.04,-0.04,1721200926350
-2.0,1.62,15.54,0.13,0.04,0.05,1721200926360
3.4,2.55,4.76,0.25,0.17,0.12,1721200926370
3.9,3.97,11.08,0.19,0.15,-0.04,1721200926380
2.47,-1.19,6.82,0.15,0.12,-0.37,1721200926390
-2.85,3.94,14.35,0.13,-0.0,-0.25,1721200926400
-2.3,-0.48,7.54,0.17,0.14,0.16,1721200926410
0.74,2.56,5.71,0.12,0.3,0.24,1721200926420
2.47,1.38,13.28,-0.15,0.25,-0.14,1721200926430
1.35,4.1,10.67,0.26,-0.06,-0.23,1721200926440
0.58,-2.01,16.18,-0.19,0.34,-0.34,1721200926450
-1.65,-1.03,11.03,0.36,-0.05,0.08,1721200926460
-1.28,4.21,2.98,-0.0,0.26,0.04,1721200926470
0.53,2.48,9.02,-0.04,0.13,-0.07,1721200926480
-0.2,-2.34,12.14,-0.16,0.17,-0.1,1721200926490
-2.3,3.81,15.68,0.19,0.17,-0.1,1721200926500
-1.63,3.46,3.65,0.01,0.09,-0.14,1721200926510
-1.71,-1.58,13.84,-0.19,0.07,-0.01,1721200926520
0.74,-0.0,15.9,0.02,0.22,0.03,1721200926530
1.53,2.12,11.61,0.24,0.05,-0.1,1721200926540
-1.52,1.39,2.71,0.02,-0.06,-0.21,1721200926550
-2.07,-4.98,11.92,-0.24,0.11,-0.25,1721200926560
-0.82,-0.14,13.32,0.19,0.09,-0.04,1721200926570
0.62,-4.6,9.74,-0.2,0.14,-0.03,1721200926580
-1.96,-0.27,12.88,0.12,-0.23,-0.11,1721200926590
-1.11,0.2,5.24,0.06,0.09,-0.04,1721200926600
1.39,-3.63,7.39,-0.08,-0.02,0.01,1721200926610
0.25,-1.72,8.96,-0.09,-0.02,-0.09,1721200926620
-0.64,3.7,12.4,-0.06,0.21,-0.31,1721200926630
-1.3,-2.89,8.81,-0.14,0.11,-0.22,1721200926640
-2.63,-4.5,18.04,-0.16,0.09,0.02,1721200926650
-1.09,-3.24,8.09,-0.05,-0.16,0.08,1721200926660
-1.8,4.95,8.28,-0.09,-0.15,0.1,1721200926670
1.84,3.24,13.13,0.08,0.27,-0.18,1721200926680
2.24,-4.27,6.71,-0.07,0.07,-0.15,1721200926690
-1.04,5.67,18.87,0.0,0.23,-0.2,1721200926700
-0.83,1.99,9.62,0.06,-0.02,-0.11,1721200926710
-5.46,5.27,13.59,0.12,-0.02,-0.17,1721200926720
-1.65,-0.99,5.39,0.1,-0.04,-0.0,1721200926730
-0.68,-5.96,5.09,-0.09,-0.1,0.14,1721200926740
-1.25,6.24,11.4,0.15,0.05,-0.16,1721200926750
0.17,4.66,14.05,0.06,0.26,-0.51,1721200926760
-5.5,-1.15,7.04,0.06,-0.12,-0.24,1721200926770
-4.19,1.41,11.27,0.04,0.34,0.1,1721200926780
1.96,0.95,10.91,0.07,0.1,0.09,1721200926790
0.91,4.66,9.8,0.14,-0.11,-0.01,1721200926800
1.12,2.33,10.64,0.17,0.11,-0.2,1721200926810
-0.91,-0.53,5.42,0.13,-0.15,-0.03,1721200926820
-3.56,1.69,12.34,-0.02,-0.04,-0.0,1721200926830
-1.34,0.06,10.35,0.11,-0.01,0.07,1721200926840
-1.98,1.5,5.17,0.05,-0.05,-0.02,1721200926850
-2.99,-0.83,10.07,-0.12,0.04,0.08,1721200926860
0.63,2.23,19.75,0.18,0.04,0.25,1721200926870
1.81,1.99,0.22,0.09,-0.19,0.22,1721200926880
0.16,0.09,11.08,-0.1,0.02,-0.13,1721200926890
0.63,0.55,8.68,0.09,-0.03,-0.04,1721200926900
-0.11,1.42,9.29,-0.12,-0.12,0.18,1721200926910
-0.05,1.77,13.79,0.03,-0.02,0.15,1721200926920
1.19,0.42,11.18,0.02,-0.03,0.04,1721200926930
-1.39,4.93,11.23,-0.03,-0.13,-0.12,1721200926940
-3.79,0.92,11.89,-0.12,-0.11,0.06,1721200926950
-2.84,-3.2,11.8,-0.0,-0.1,0.21,1721200926960
0.64,-0.24,6.68,0.0,-0.02,0.4,1721200926970
2.79,0.44,8.96,-0.2,-0.19,0.08,1721200926980
2.09,-2.16,14.09,-0.09,-0.32,0.08,1721200926990
0.73,4.67,16.94,0.06,0.03,-0.04,1721200927000
1.19,1.66,6.88,0.21,-0.14,-0.32,1721200927010
-1.64,-9.42,4.38,-0.28,-0.11,-0.03,1721200927020
-4.75,2.17,13.19,0.02,-0.25,0.14,1721200927030
0.31,3.58,11.07,0.02,-0.01,0.25,1721200927040
4.43,2.78,9.25,0.14,-0.08,0.15,1721200927050
5.05,-2.88,4.62,-0.2,0.04,-0.31,1721200927060
-2.81,5.93,17.45,0.03,-0.16,-0.61,1721200927070
-2.84,1.3,9.79,0.11,0.01,-0.02,1721200927080
-0.59,-3.09,5.45,-0.0,0.02,0.22,1721200927090
2.83,-5.73,11.1,-0.11,-0.01,-0.01,1721200927100
2.47,0.25,12.44,-0.08,-0.17,-0.27,1721200927110
-0.8,2.2,9.29,0.07,-0.06,-0.41,1721200927120
-2.15,4.3,10.69,0.1,0.18,-0.19,1721200927130
-0.7,-1.52,8.98,-0.01,-0.0,0.12,1721200927140
1.07,-5.49,11.26,-0.07,0.05,-0.06,1721200927150
-0.19,6.42,14.96,-0.0,0.15,-0.38,1721200927160
-1.65,2.33,9.93,0.13,-0.15,-0.05,1721200927170
-0.29,-5.94,-0.35,-0.16,0.02,0.04,1721200927180
3.05,-1.92,15.77,-0.11,0.32,-0.27,1721200927190
0.59,9.58,9.98,0.28,0.01,-0.35,1721200927200
-1.47,-1.68,9.44,-0.24,0.27,-0.32,1721200927210
-1.35,-0.48,18.65,0.17,0.12,0.18,1721200927220
2.86,3.74,6.15,0.1,0.08,0.12,1721200927230
2.63,7.06,8.75,0.1,0.05,-0.34,1721200927240
0.55,-0.88,3.7,-0.17,0.08,-0.6,1721200927250
-5.47,0.21,16.55,-0.03,0.01,-0.36,1721200927260
-4.56,5.1,10.72,0.16,0.23,0.06,1721200927270
1.39,-2.88,6.65,-0.09,0.22,0.33,1721200927280
3.18,1.19,15.69,0.01,0.13,0.0,1721200927290
3.22,5.88,11.66,0.26,0.14,-0.37,1721200927300
0.62,-0.58,2.43,-0.01,0.04,-0.5,1721200927310
-2.91,-2.04,19.08,-0.16,0.22,-0.3,1721200927320
-2.23,4.58,12.13,0.41,0.05,-0.06,1721200927330
0.29,-0.37,-1.33,-0.05,0.28,-0.12,1721200927340
-0.61,-0.57,14.03,0.0,0.16,-0.16,1721200927350
2.63,2.59,16.24,0.07,0.3,-0.4,1721200927360
-0.88,1.18,10.88,0.3,0.02,-0.62,1721200927370
-6.1,-7.54,-3.05,-0.25,0.01,-0.35,1721200927380
-5.84,1.22,22.48,-0.03,0.36,0.1,1721200927390
2.27,1.7,13.17,0.18,0.16,-0.01,1721200927400
-1.96,-0.83,6.78,-0.05,-0.07,-0.29,1721200927410
-6.47,-7.83,2.98,-0.03,0.09,-0.19,1721200927420
-0.34,-2.57,11.2,-0.04,0.69,0.04,1721200927430
3.77,1.44,15.44,-0.01,-0.0,0.15,1721200927440
-0.34,0.34,13.51,-0.03,-0.34,-0.14,1721200927450
-5.18,7.07,2.67,0.33,0.07,-0.29,1721200927460
-0.38,-6.28,6.39,-0.29,0.4,-0.17,1721200927470
-4.76,-6.99,19.31,-0.18,-0.26,0.1,1721200927480
-2.95,4.34,8.24,0.1,0.12,0.23,1721200927490
0.17,5.74,4.88,0.15,0.22,0.04,1721200927500
3.21,-5.54,14.0,-0.23,0.33,0.1,1721200927510
2.45,0.86,18.22,0.05,0.05,0.07,1721200927520
1.69,10.26,13.12,0.24,0.07,-0.35,1721200927530
1.27,-1.67,10.16,-0.08,0.02,-0.32,1721200927540
-5.57,-0.99,5.49,0.2,-0.32,-0.03,1721200927550
-1.16,-3.53,10.75,-0.1,0.53,0.18,1721200927560
2.82,2.71,14.85,0.22,-0.02,-0.0,1721200927570
-0.14,2.21,2.46,-0.07,-0.1,-0.21,1721200927580
-3.14,-0.96,12.82,0.03,0.41,-0.34,1721200927590
-1.64,-2.95,7.02,0.03,0.17,-0.09,1721200927600
-1.44,-1.04,12.3,-0.21,0.25,-0.04,1721200927610
0.92,3.78,17.26,0.1,0.08,-0.11,1721200927620
-2.38,2.25,3.81,0.13,-0.31,-0.07,1721200927630
-1.72,-2.77,11.63,-0.08,0.48,0.08,1721200927640
2.16,-2.42,10.93,0.01,0.07,0.21,1721200927650
-1.36,2.88,7.3,-0.01,-0.1,0.02,1721200927660
-4.57,0.01,5.16,-0.08,-0.33,-0.23,1721200927675
-1.0,-4.81,9.16,-0.23,-0.15,-0.13,1721200927679
-5.33,3.63,10.44,0.09,-0.1,0.18,1721200927689
0.84,3.4,8.88,-0.11,0.25,0.06,1721200927699
0.79,1.16,19.71,0.02,-0.1,0.18,1721200927709
-2.08,10.36,4.19,0.21,0.01,0.04,1721200927719
2.01,-0.46,10.19,-0.25,0.24,-0.02,1721200927729
-2.15,-1.98,12.09,-0.03,-0.44,0.18,1721200927739
-3.9,0.81,3.73,-0.13,-0.03,0.18,1721200927749
-0.05,1.69,13.1,-0.09,0.16,0.04,1721200927759
0.96,2.86,13.27,0.01,0.06,0.11,1721200927769
0.16,0.88,10.93,-0.06,-0.01,0.06,1721200927779
0.1,0.04,8.39,0.04,-0.02,0.06,1721200927789
0.96,-4.19,9.2,-0.2,0.11,0.05,1721200927799
-2.53,5.54,19.96,0.12,-0.07,0.17,1721200927809
-0.92,2.92,2.99,0.06,-0.07,0.33,1721200927819
0.1,-2.53,10.34,-0.24,0.04,0.1,1721200927829
0.21,-1.91,15.9,-0.0,-0.08,0.08,1721200927839
-1.56,-0.68,8.2,-0.12,-0.08,0.2,1721200927849
-3.57,3.18,9.79,0.08,-0.24,0.36,1721200927859
3.76,1.14,8.44,-0.03,0.18,0.28,1721200927869
5.71,-5.56,13.32,-0.19,-0.18,0.16,1721200927879
-0.02,5.27,10.69,0.02,-0.15,-0.22,1721200927889
-2.51,7.45,9.67,0.03,0.07,-0.25,1721200927899
-1.0,-4.33,11.82,-0.12,-0.07,0.34,1721200927909
2.79,-2.72,13.94,0.08,-0.02,0.43,1721200927919
4.42,-2.34,3.06,-0.08,0.03,-0.08,1721200927929
0.33,4.82,17.8,0.02,0.01,-0.21,1721200927939
-0.37,-0.46,7.24,0.04,-0.08,-0.15,1721200927949
-1.22,4.47,13.7,0.11,-0.03,0.25,1721200927959
3.47,1.53,7.65,0.17,0.16,0.06,1721200927969
1.21,0.69,13.57,-0.07,-0.01,-0.32,1721200927979
-2.83,0.91,11.27,0.19,-0.12,-0.15,1721200927989
-2.46,1.16,4.02,-0.0,0.1,0.09,1721200927999
0.11,-6.2,9.22,-0.05,-0.1,0.2,1721200928009
0.97,1.93,14.17,0.05,0.05,-0.09,1721200928019
0.62,2.9,8.77,0.09,-0.03,-0.14,1721200928029
-3.12,1.63,9.79,0.06,0.05,-0.1,1721200928039
-1.85,-2.93,9.32,0.05,0.11,-0.02,1721200928049
0.93,-0.55,9.42,0.02,0.03,0.18,1721200928059
1.35,5.93,12.92,0.14,-0.01,0.1,1721200928069
4.56,0.71,10.51,0.04,0.1,-0.06,1721200928079
1.41,5.13,12.05,0.19,-0.07,-0.34,1721200928089
-2.49,-0.75,-1.32,0.07,-0.1,-0.14,1721200928099
-4.44,-4.04,15.74,-0.23,0.36,-0.07,1721200928109
-1.47,0.97,9.72,0.22,-0.09,0.25,1721200928119
1.28,1.8,8.73,-0.09,0.23,0.11,1721200928129
2.83,6.82,17.61,0.17,0.08,-0.03,1721200928139
0.77,5.56,6.24,0.09,-0.01,-0.08,1721200928149
-0.99,-3.47,13.92,-0.19,0.21,-0.24,1721200928159
-1.82,-4.11,9.31,0.08,-0.04,-0.06,1721200928169
-1.93,3.33,7.06,0.13,0.13,0.12,1721200928179
2.7,-1.2,10.28,-0.12,0.19,0.05,1721200928189
0.92,9.48,14.88,0.41,-0.14,-0.11,1721200928199
2.74,1.11,2.75,-0.05,0.05,-0.2,1721200928209
-2.1,-5.12,18.09,-0.35,-0.08,-0.22,1721200928219
-3.23,0.73,13.08,0.15,-0.06,-0.17,1721200928229
0.09,0.4,5.38,-0.03,0.14,-0.07,1721200928239
-0.01,-7.8,3.45,-0.24,-0.12,0.01,1721200928249
-2.66,3.93,8.32,-0.04,0.02,-0.09,1721200928259
1.6,-0.85,7.02,-0.1,0.25,-0.41,1721200928269
0.8,-4.87,18.16,-0.27,0.22,-0.24,1721200928279
-2.43,2.73,6.76,0.14,-0.0,-0.16,1721200928289
-2.54,-5.25,10.6,-0.55,0.3,-0.2,1721200928299
-2.28,5.7,19.93,0.16,-0.07,0.03,1721200928309
1.71,-2.41,2.0,-0.08,0.15,0.02,1721200928319
-0.8,2.31,17.22,-0.04,0.09,-0.18,1721200928329
-1.65,2.95,6.17,0.18,-0.09,-0.15,1721200928339
-0.89,5.21,4.35,-0.04,0.2,-0.14,1721200928349
0.76,-3.5,16.11,-0.18,0.07,-0.11,1721200928359
-2.51,2.92,14.2,0.21,-0.23,0.08,1721200928369
-1.31,-4.85,0.53,-0.16,0.03,0.05,1721200928379
-1.42,2.89,21.42,0.04,-0.06,-0.01,1721200928389
0.13,5.96,7.17,0.46,-0.13,-0.05,1721200928399
-1.03,-2.68,-0.21,-0.04,-0.07,-0.16,1721200928409
-2.47,0.75,15.94,0.09,0.12,-0.11,1721200928419
0.84,-1.23,9.51,0.09,-0.05,0.09,1721200928429
-3.08,-0.17,4.95,-0.0,-0.29,-0.04,1721200928439
-1.11,1.49,12.04,0.04,0.22,0.02,1721200928449
0.56,-3.25,4.57,0.1,-0.12,0.05,1721200928459
-0.96,-3.8,12.8,-0.22,0.19,-0.06,1721200928469
-0.6,3.43,13.19,0.17,0.07,-0.03,1721200928479
0.74,4.46,13.07,0.1,0.21,-0.12,1721200928489
0.23,0.57,9.05,0.1,-0.1,0.27,1721200928499
-0.78,-2.02,5.05,-0.14,-0.25,0.2,1721200928509
1.85,3.83,16.18,0.12,0.05,-0.13,1721200928519
1.25,-0.33,7.08,-0.01,-0.11,-0.24,1721200928529
-5.84,2.8,12.54,-0.03,-0.19,-0.24,1721200928539
-4.51,0.17,5.59,0.01,0.03,0.18,1721200928549
1.83,-1.41,17.25,-0.06,0.35,0.28,1721200928559
2.34,6.01,10.88,0.28,-0.08,-0.03,1721200928569
0.53,2.18,1.51,-0.28,-0.1,-0.17,1721200928579
-2.04,5.9,22.97,0.11,-0.17,0.06,1721200928589
1.7,0.32,3.05,0.28,0.02,0.13,1721200928599
0.17,-7.43,5.49,-0.52,-0.07,-0.08,1721200928609
-5.41,7.91,20.57,0.07,-0.29,-0.13,1721200928619
-0.48,7.33,2.55,0.06,0.13,0.19,1721200928629
2.39,1.36,12.74,-0.1,0.06,0.15,1721200928639
1.36,-10.01,4.49,-0.24,-0.39,-0.11,1721200928649
-5.85,6.06,15.34,0.07,-0.16,-0.27,1721200928659
-1.22,1.2,3.3,0.06,0.0,0.11,1721200928669
-1.78,-5.64,14.85,-0.29,-0.1,0.16,1721200928679
0.33,0.03,7.61,0.13,-0.21,0.36,1721200928689
5.07,3.03,9.45,-0.15,0.2,0.01,1721200928699
3.28,2.02,15.5,-0.05,-0.29,-0.09,1721200928709
-1.91,-0.98,7.75,-0.09,-0.22,-0.2,1721200928719
-2.71,-5.66,15.6,-0.24,0.0,-0.06,1721200928729
-1.22,2.46,8.45,0.24,-0.17,0.32,1721200928739
3.43,1.5,6.38,-0.17,0.27,-0.03,1721200928749
1.55,1.16,18.89,0.03,-0.26,-0.16,1721200928759
-0.93,-4.44,9.46,-0.08,-0.18,-0.03,1721200928769
-0.93,4.08,12.02,0.05,0.05,-0.12,1721200928779
0.8,-2.5,3.33,-0.01,-0.16,-0.1,1721200928789
-1.37,-2.63,17.09,-0.18,0.15,-0.05,1721200928799
-1.13,6.0,7.93,0.26,-0.12,0.26,1721200928809
2.45,2.02,5.44,-0.15,0.22,0.23,1721200928819
4.4,1.99,18.17,0.06,0.04,-0.4,1721200928829
-0.13,-0.07,7.6,0.0,-0.29,-0.37,1721200928839
-5.3,5.38,11.56,-0.04,0.03,-0.16,1721200928849
-4.14,-2.82,6.31,-0.05,-0.07,0.01,1721200928859
-1.42,-4.37,13.19,-0.03,0.03,0.19,1721200928869
2.32,3.93,9.02,0.06,0.01,0.24,1721200928879
1.33,6.58,6.27,0.03,-0.03,-0.16,1721200928889
2.3,3.95,20.51,0.18,0.22,-0.23,1721200928899
3.61,-1.16,3.56,0.28,-0.17,-0.09,1721200928909
1.51,0.11,14.42,0.07,0.21,-0.19,1721200928919
0.86,0.22,8.55,0.31,-0.03,-0.33,1721200928929
0.08,1.47,9.74,-0.06,0.06,-0.15,1721200928939
0.38,0.51,13.25,0.29,-0.04,-0.4,1721200928949
1.41,-7.04,2.65,0.0,0.07,-0.24,1721200928959
-1.29,0.46,17.76,0.05,0.18,-0.34,1721200928969
-4.73,12.23,7.95,0.4,-0.12,-0.38,1721200928979
-1.87,-3.95,3.29,-0.05,0.12,-0.08,1721200928989
3.12,-9.54,12.91,-0.27,0.15,0.16,1721200928999
4.13,3.17,16.72,0.24,0.06,-0.17,1721200929009
4.49,3.28,2.06,-0.03,0.3,-0.77,1721200929019
-6.56,1.41,13.25,-0.18,-0.25,-0.61,1721200929029
-7.17,-0.59,20.85,0.19,0.1,-0.17,1721200929039
-4.5,-5.12,-3.14,0.13,-0.02,0.15,1721200929049
0.84,2.55,10.67,-0.25,0.67,0.09,1721200929059
4.38,0.57,16.96,-0.11,0.06,-0.32,1721200929069
0.22,-0.16,18.52,-0.11,-0.07,-0.46,1721200929079
-4.58,-0.28,5.28,0.23,-0.03,-0.29,1721200929089
-3.66,-4.58,7.0,-0.24,0.45,-0.03,1721200929099
0.11,5.07,20.32,0.15,0.18,0.24,1721200929109
2.81,2.0,2.89,0.14,0.02,0.05,1721200929119
0.51,-3.42,10.62,-0.25,0.1,-0.52,1721200929129
-2.85,-1.62,11.95,0.09,-0.06,-0.15,1721200929139
-2.92,0.56,5.33,-0.08,0.23,-0.12,1721200929149
-0.05,-4.39,18.26,-0.25,0.21,0.08,1721200929159
-3.23,3.48,10.5,0.09,-0.22,-0.08,1721200929169
-0.74,3.76,7.24,0.05,0.46,-0.14,1721200929179
1.43,-7.86,12.44,-0.12,0.01,0.05,1721200929189
-0.82,2.52,11.42,0.14,-0.13,0.28,1721200929199
4.72,4.15,17.29,-0.11,0.53,-0.23,1721200929209
-0.63,8.87,15.78,0.38,-0.34,-0.18,1721200929219
-4.58,-7.08,-0.08,-0.16,-0.08,-0.04,1721200929229
-3.54,-5.55,10.36,0.02,-0.1,0.22,1721200929239
1.15,0.2,1.36,-0.04,0.11,0.12,1721200929249
3.93,-1.9,18.79,-0.25,0.32,-0.19,1721200929259
-0.6,6.41,14.4,0.28,-0.05,-0.31,1721200929269
-3.57,4.1,4.46,0.01,0.26,-0.08,1721200929279
-1.05,2.09,14.53,-0.02,0.15,0.16,1721200929289
2.35,6.84,15.42,0.19,-0.15,0.26,1721200929299
0.79,-4.79,-0.38,-0.14,-0.43,0.12,1721200929309
-3.41,1.59,11.59,0.06,0.15,-0.24,1721200929319
2.1,0.12,9.45,-0.03,0.13,-0.01,1721200929329
-2.98,9.23,17.42,0.13,-0.25,-0.05,1721200929339
-1.89,-1.47,-3.41,0.12,-0.12,-0.01,1721200929349
1.06,-2.17,7.49,-0.3,0.27,-0.04,1721200929359
1.27,2.94,20.54,0.17,0.1,-0.08,1721200929369
1.73,4.07,12.28,0.06,0.02,-0.01,1721200929379
-1.43,2.38,11.03,0.11,-0.31,-0.07,1721200929389
-2.36,4.96,11.92,0.12,-0.01,-0.02,1721200929399
-0.58,-0.16,2.88,0.12,-0.24,0.09,1721200929409
-1.73,-0.38,10.23,-0.11,0.05,0.03,1721200929419
-2.05,-0.28,2.82,0.11,-0.23,0.05,1721200929429
-0.4,0.2,6.8,-0.11,0.26,0.18,1721200929439
3.11,4.98,20.12,0.13,0.07,0.03,1721200929449
1.53,-0.8,1.07,-0.03,-0.34,0.0,1721200929459
-2.16,-3.75,18.2,-0.31,0.12,-0.19,1721200929469
-4.14,4.57,11.06,0.25,-0.15,0.09,1721200929479
0.78,-0.21,14.09,-0.16,0.2,0.24,1721200929489
1.07,-7.54,4.26,0.02,-0.51,0.43,1721200929499
1.31,0.8,5.78,-0.19,0.13,0.08,1721200929509
3.69,7.13,23.69,0.09,0.11,-0.24,1721200929519
-0.45,-0.63,4.03,0.11,-0.41,-0.11,1721200929529
0.39,-4.5,11.45,-0.34,0.22,0.19,1721200929539
2.23,3.04,15.11,0.13,-0.0,-0.16,1721200929549
-0.46,3.47,5.68,0.03,-0.11,-0.04,1721200929559
-1.42,1.68,6.71,-0.2,0.0,-0.05,1721200929569
2.22,-1.89,18.16,0.04,0.03,-0.24,1721200929579
1.57,1.71,8.26,0.03,0.01,-0.24,1721200929589
-2.52,0.72,11.11,-0.16,-0.15,-0.1,1721200929599
-2.09,4.73,11.44,0.11,0.22,-0.1,1721200929609
1.86,-5.96,6.15,-0.03,0.17,-0.14,1721200929619
-0.71,1.13,17.55,0.01,-0.05,0.15,1721200929629
0.48,3.04,10.04,0.08,-0.09,0.11,1721200929639
3.67,4.07,13.07,0.14,0.14,-0.16,1721200929649
3.11,-4.88,4.33,0.0,-0.02,-0.45,1721200929659
-3.7,-3.73,7.54,-0.02,-0.19,-0.16,1721200929669
-3.79,3.98,11.68,0.24,-0.15,0.16,1721200929684
-0.46,-1.12,10.89,0.08,-0.1,0.28,1721200929688
2.2,6.98,10.61,0.1,0.26,0.16,1721200929698
5.56,-0.41,11.13,-0.0,0.13,-0.37,1721200929708
-1.08,0.72,11.91,0.09,-0.13,-0.55,1721200929718
-4.04,-0.45,8.85,0.12,0.16,-0.35,1721200929728
-2.77,-1.27,7.41,0.04,0.09,0.15,1721200929738
-0.11,1.92,11.98,0.05,0.06,0.07,1721200929748
3.17,2.74,11.43,0.15,0.19,-0.26,1721200929758
1.15,0.52,0.14,0.03,-0.06,-0.44,1721200929768
-4.77,-0.01,14.2,-0.19,0.35,-0.4,1721200929778
-5.08,6.37,17.92,0.21,0.17,-0.05,1721200929788
1.53,2.63,11.41,-0.0,0.23,0.29,1721200929798
4.18,1.39,3.68,0.09,0.03,-0.02,1721200929808
3.71,0.74,7.88,-0.19,0.19,-0.39,1721200929818
0.54,6.2,18.45,0.12,0.14,-0.55,1721200929828
-3.08,1.3,3.53,0.09,0.08,-0.39,1721200929838
-4.2,-2.09,10.6,-0.17,0.37,-0.08,1721200929848
-0.56,0.74,12.6,0.2,0.13,0.1,1721200929858
4.06,1.63,11.93,-0.12,0.38,-0.07,1721200929868
0.5,8.23,10.55,0.25,-0.26,-0.24,1721200929878
-0.78,-6.61,2.87,-0.26,0.18,-0.45,1721200929888
-4.64,-3.62,15.56,-0.09,-0.01,-0.39,1721200929898
-3.18,3.83,4.52,0.15,0.18,-0.15,1721200929908
-1.58,1.59,11.5,-0.17,0.3,-0.11,1721200929918
-1.89,-5.83,11.64,0.08,-0.0,-0.16,1721200929928
-2.52,-6.23,4.49,-0.14,0.14,-0.03,1721200929938
0.62,3.14,12.64,0.04,0.34,0.01,1721200929948
3.46,2.26,13.16,-0.13,0.19,-0.31,1721200929958
-1.76,0.35,16.18,0.0,-0.25,-0.26,1721200929968
-5.98,-0.13,3.52,0.05,0.01,-0.12,1721200929978
0.08,-6.08,13.1,-0.22,0.42,0.11,1721200929988
0.3,1.2,16.45,0.01,-0.05,0.07,1721200929998
-1.41,3.22,2.6,0.06,-0.05,-0.15,1721200930008
-0.97,0.04,15.05,-0.11,0.38,-0.26,1721200930018
-0.69,-1.67,8.88,0.24,-0.07,0.03,1721200930028
1.92,-1.29,15.43,-0.09,0.35,0.16,1721200930038
0.86,2.63,11.6,0.2,-0.25,-0.04,1721200930048
0.72,3.34,13.19,-0.09,0.42,-0.22,1721200930058
-0.49,0.79,12.01,0.15,-0.23,-0.07,1721200930068
-3.05,-6.89,-0.18,-0.06,-0.07,-0.01,1721200930078
-0.49,-0.04,14.95,0.03,0.57,-0.21,1721200930088
1.83,8.24,20.51,0.17,0.24,-0.15,1721200930098
-3.2,2.5,9.63,0.12,-0.22,-0.06,1721200930108
-2.82,-5.6,4.76,0.07,0.07,0.14,1721200930118
1.85,1.96,10.2,0.1,0.17,0.25,1721200930128
1.21,8.87,13.79,0.06,-0.16,-0.17,1721200930138
-2.17,1.77,5.47,0.22,-0.36,-0.12,1721200930148
-3.23,-7.69,5.45,-0.14,0.4,-0.09,1721200930158
-2.94,3.8,13.19,0.19,-0.17,0.2,1721200930168
1.13,5.19,2.64,0.02,0.07,0.34,1721200930178
4.4,6.52,18.7,0.09,0.22,-0.04,1721200930188
2.92,-3.25,9.25,0.08,-0.11,-0.24,1721200930198
-4.95,-0.66,5.48,-0.08,-0.21,-0.14,1721200930208
-3.75,5.94,11.35,0.06,0.08,0.17,1721200930218
1.79,3.15,9.59,0.03,0.17,0.22,1721200930228
2.77,-0.76,16.13,0.01,0.01,-0.1,1721200930238
-1.13,0.91,6.14,0.02,-0.2,-0.21,1721200930248
-3.03,0.44,13.43,-0.06,-0.09,0.13,1721200930258
-3.62,3.66,3.37,0.12,-0.13,0.15,1721200930268
-0.32,0.4,9.88,-0.24,0.07,0.15,1721200930278
0.84,0.25,15.96,0.02,-0.16,-0.03,1721200930288
-2.38,-5.31,4.63,-0.2,-0.32,0.04,1721200930298
-2.39,-0.18,12.37,-0.12,-0.04,0.12,1721200930308
0.72,-1.06,14.82,-0.09,0.03,0.14,1721200930318
0.06,2.83,13.38,0.23,-0.27,0.36,1721200930328
1.92,-7.87,1.39,-0.3,-0.11,0.1,1721200930338
-1.32,1.4,12.62,-0.04,-0.39,-0.11,1721200930348
-0.88,-0.41,7.53,-0.01,0.01,0.07,1721200930358
-0.86,2.14,13.4,-0.01,-0.02,0.26,1721200930368
-0.79,3.12,4.25,0.12,-0.36,0.3,1721200930378
7.04,-5.37,10.64,-0.22,0.32,-0.06,1721200930388
4.17,0.99,17.36,0.0,-0.34,-0.33,1721200930398
-2.28,5.5,9.12,-0.01,-0.18,-0.16,1721200930408
-3.43,4.28,5.81,-0.06,0.02,-0.0,1721200930418
1.06,-3.68,13.83,-0.06,0.09,-0.03,1721200930428
3.13,-7.53,10.23,0.02,-0.01,-0.11,1721200930438
-1.85,6.78,9.53,0.01,-0.04,-0.14,1721200930448
-0.92,5.32,14.47,-0.04,0.04,-0.09,1721200930458
3.24,-3.56,10.52,0.08,-0.09,0.07,1721200930468
1.85,0.58,2.42,0.1,-0.02,-0.35,1721200930478
-1.3,-2.0,10.89,-0.23,0.08,-0.4,1721200930488
-3.95,4.12,24.07,0.17,0.0,-0.27,1721200930498
-1.34,-4.31,4.53,0.12,-0.11,0.3,1721200930508
2.11,5.81,10.18,0.15,0.25,0.12,1721200930518
5.41,-0.63,7.62,0.05,0.1,-0.48,1721200930528
-2.77,7.63,18.06,0.22,0.02,-0.44,1721200930538
-3.29,-4.42,3.3,0.12,0.06,-0.33,1721200930548
-1.94,-5.06,11.18,-0.07,0.12,0.17,1721200930558
0.92,0.87,6.59,0.12,0.04,-0.01,1721200930568
2.79,7.28,18.23,0.08,0.32,-0.34,1721200930578
1.67,5.71,6.61,0.36,-0.04,-0.22,1721200930588
0.85,-1.5,17.59,-0.16,0.46,-0.39,1721200930598
-1.4,-1.31,7.45,0.31,-0.15,-0.13,1721200930608
-2.66,2.01,4.15,-0.19,0.33,-0.25,1721200930618
-1.57,1.54,19.77,0.14,0.11,-0.11,1721200930628
-0.05,-0.07,9.71,0.21,0.14,0.04,1721200930638
2.11,7.08,5.25,0.23,0.21,-0.07,1721200930648
2.83,0.22,4.2,-0.04,0.11,-0.42,1721200930658
-2.01,-4.47,15.73,-0.29,0.12,-0.49,1721200930668
-5.78,-0.39,8.82,0.15,-0.15,-0.08,1721200930678
-3.63,0.48,2.25,0.0,0.27,0.06,1721200930688
0.62,-2.44,10.93,-0.09,0.15,0.0,1721200930698
2.16,1.91,20.24,-0.02,0.29,-0.19,1721200930708
0.09,5.49,3.78,0.18,-0.07,-0.35,1721200930718
-1.65,-2.15,12.27,-0.23,0.42,-0.33,1721200930728
-1.33,-1.56,15.94,0.22,0.07,-0.04,1721200930738
-0.37,-5.76,1.35,-0.08,-0.03,-0.02,1721200930748
-6.31,5.61,8.1,0.09,-0.18,-0.08,1721200930758
0.5,-1.37,6.34,-0.1,0.41,-0.01,1721200930768
-0.36,2.61,17.4,0.16,0.04,-0.17,1721200930778
-0.94,0.92,-2.82,0.15,-0.03,0.03,1721200930788
1.28,-5.14,13.84,-0.45,0.39,-0.03,1721200930798
-2.92,1.05,29.17,0.14,-0.38,0.04,1721200930808
-3.21,7.05,2.79,0.25,-0.16,-0.04,1721200930818
-1.21,-4.88,6.58,-0.16,0.31,0.07,1721200930828
-0.05,-0.33,8.72,0.06,-0.02,0.28,1721200930838
2.75,3.17,13.86,-0.07,0.12,-0.02,1721200930848
0.77,4.06,13.04,0.23,-0.16,-0.27,1721200930858
-2.16,-5.24,3.86,-0.11,-0.12,-0.05,1721200930868
-3.39,-1.92,15.16,-0.08,-0.02,0.23,1721200930878
0.66,0.08,9.62,0.04,0.01,0.02,1721200930888
-0.66,2.1,8.9,0.06,-0.1,-0.17,1721200930898
-1.54,-2.86,9.14,-0.11,0.17,-0.16,1721200930908
-0.44,0.74,7.01,0.15,-0.25,0.05,1721200930918
1.54,-2.84,8.07,-0.19,0.42,0.09,1721200930928
2.98,0.53,24.72,0.09,0.07,-0.1,1721200930938
-4.34,3.11,2.55,0.15,-0.32,-0.24,1721200930948
-6.16,-1.7,11.89,-0.16,0.03,0.02,1721200930958
-0.93,-1.99,7.5,0.27,-0.18,0.34,1721200930968
3.71,-0.6,11.91,-0.13,0.38,0.09,1721200930978
2.59,4.78,16.85,0.21,-0.18,-0.15,1721200930988
-1.94,3.36,5.84,0.04,-0.24,-0.2,1721200930998
-3.84,-2.08,10.44,0.02,-0.1,0.24,1721200931008
0.22,4.82,8.95,0.09,0.12,0.32,1721200931018
3.13,5.21,15.04,-0.09,-0.04,-0.07,1721200931028
0.51,-3.27,9.27,-0.04,-0.24,-0.12,1721200931038
-4.98,-2.3,0.79,-0.24,-0.33,-0.09,1721200931048
-4.2,7.3,18.34,0.0,0.08,0.1,1721200931058
2.26,4.82,11.21,0.21,-0.03,0.37,1721200931068
2.97,-4.3,6.02,-0.29,-0.09,0.19,1721200931078
-1.28,4.66,15.7,0.04,-0.16,-0.38,1721200931088
-1.16,0.18,2.62,-0.07,-0.21,-0.06,1721200931098
-3.8,-0.64,21.87,-0.1,-0.04,0.31,1721200931108
-0.02,2.75,7.55,0.23,-0.21,0.34,1721200931118
1.23,-4.01,-2.33,-0.26,-0.39,0.04,1721200931128
-0.94,1.81,18.58,-0.2,0.0,-0.19,1721200931138
-2.63,3.48,10.04,0.2,-0.22,-0.07,1721200931148
-0.98,-6.1,5.32,-0.24,-0.16,0.26,1721200931158
0.09,-3.04,14.64,-0.08,-0.19,0.2,1721200931168
5.17,-1.99,11.54,-0.05,-0.09,0.15,1721200931178
4.63,3.66,10.41,0.06,-0.19,-0.26,1721200931188
0.36,-0.01,6.34,0.07,-0.19,-0.21,1721200931198
-1.79,2.18,21.97,-0.11,0.19,-0.13,1721200931208
-0.91,1.9,7.46,0.18,-0.24,0.03,1721200931218
-0.73,2.91,4.06,-0.08,0.0,-0.25,1721200931228
3.65,-5.41,16.02,-0.1,0.01,-0.21,1721200931238
0.77,-1.55,10.61,0.05,-0.25,0.05,1721200931248
-0.91,7.19,10.04,0.18,0.01,-0.09,1721200931258
3.5,0.4,6.5,-0.01,0.12,-0.41,1721200931268
-0.59,-9.46,5.6,-0.31,-0.3,-0.39,1721200931278
-5.53,5.68,19.95,0.11,-0.03,-0.18,1721200931288
0.65,7.51,8.19,0.35,0.12,0.09,1721200931298
4.64,-8.33,3.64,-0.1,0.06,0.24,1721200931308
2.01,-3.47,14.27,-0.05,-0.04,-0.35,1721200931318
0.64,4.26,15.67,0.04,0.18,-0.55,1721200931328
-2.72,3.85,8.54,0.15,-0.12,-0.34,1721200931338
-0.06,-1.46,6.39,0.14,0.18,0.07,1721200931348
4.13,-4.63,9.41,-0.04,0.25,-0.24,1721200931358
-0.2,5.12,17.54,0.18,0.01,-0.43,1721200931368
-2.01,4.61,9.94,0.09,0.19,-0.4,1721200931378
-1.47,1.56,10.83,0.19,0.0,-0.08,1721200931388
2.94,-4.12,1.46,-0.03,0.25,-0.06,1721200931398
1.82,0.68,17.1,-0.01,0.24,-0.47,1721200931408
-1.13,7.98,13.76,0.28,0.13,-0.54,1721200931418
-3.67,10.96,3.44,0.31,0.18,-0.24,1721200931428
0.0,-3.65,1.17,-0.1,0.31,-0.08,1721200931438
1.18,-4.1,23.47,-0.13,0.3,-0.23,1721200931448
0.62,8.03,9.16,0.45,0.02,-0.18,1721200931458
-0.15,3.48,3.78,-0.24,0.4,-0.31,1721200931468
-2.87,-2.84,15.66,0.13,-0.09,-0.21,1721200931478
-1.45,0.64,4.2,0.17,0.18,-0.02,1721200931488
2.29,2.73,7.55,-0.0,0.39,-0.19,1721200931498
-0.65,5.34,14.78,0.06,0.13,-0.29,1721200931508
-1.51,-1.1,11.79,0.03,0.19,-0.25,1721200931518
-1.22,-1.37,10.4,-0.06,0.34,-0.2,1721200931528
1.49,-2.36,16.79,-0.05,0.27,-0.11,1721200931538
-1.09,4.2,6.41,0.21,-0.11,-0.25,1721200931548
-1.57,1.12,1.16,-0.08,0.26,-0.26,1721200931558
0.05,3.78,20.0,0.04,0.41,-0.17,1721200931568
1.4,-7.21,5.26,-0.04,0.07,-0.11,1721200931578
-3.63,-0.37,14.48,-0.16,-0.01,-0.16,1721200931588
-0.33,1.16,6.89,0.19,0.21,-0.24,1721200931598
-1.26,-2.72,6.62,-0.24,0.13,-0.26,1721200931608
-3.57,-2.23,11.73,0.05,-0.07,0.04,1721200931618
-2.03,-2.1,5.09,-0.19,0.0,0.18,1721200931628
-1.98,4.4,18.15,0.01,0.11,-0.17,1721200931638
-1.12,0.46,1.27,0.01,-0.01,-0.37,1721200931648
-0.93,-3.91,18.48,-0.3,0.57,-0.06,1721200931658
-1.81,2.23,12.14,0.26,-0.1,0.23,1721200931668
-1.35,1.48,-1.34,-0.36,0.26,0.1,1721200931678
-2.3,6.89,16.21,0.29,-0.44,-0.15,1721200931693
1.61,2.87,10.77,0.29,-0.23,-0.16,1721200931697
-5.19,-4.38,-0.36,-0.28,-0.07,-0.47,1721200931707
-6.83,-3.09,24.5,0.01,0.03,-0.02,1721200931717
-2.0,12.34,6.6,0.55,-0.07,0.27,1721200931727
1.39,-4.75,-0.44,-0.27,0.0,0.19,1721200931737
-6.05,-5.81,17.08,0.07,-0.27,-0.01,1721200931747
-1.64,2.51,12.34,0.12,0.14,-0.27,1721200931757
-3.03,2.2,11.09,0.05,-0.05,-0.12,1721200931767
-3.71,-6.77,9.68,-0.12,-0.12,0.29,1721200931777
-1.04,4.48,14.8,0.33,-0.07,0.39,1721200931787
5.63,1.36,-1.35,0.16,-0.01,0.23,1721200931797
9.4,6.65,18.81,-0.16,0.05,-0.05,1721200931807
3.03,7.94,12.54,0.48,-0.16,-0.1,1721200931817
0.69,3.3,-0.9,0.07,-0.17,-0.09,1721200931827
-2.34,-3.1,12.4,-0.15,-0.11,-0.19,1721200931837
-4.26,2.09,15.98,0.15,-0.25,0.23,1721200931847
-1.25,4.89,3.48,0.11,-0.28,0.5,1721200931857
2.41,2.44,7.96,-0.11,0.09,0.21,1721200931867
3.66,-4.76,9.59,-0.12,-0.15,-0.4,1721200931877
-2.51,6.54,13.38,0.22,-0.08,-0.23,1721200931887
-1.4,0.45,7.24,-0.12,0.11,-0.07,1721200931897
-2.72,-0.25,19.62,0.08,-0.15,0.29,1721200931907
3.28,-0.38,4.39,0.13,0.04,0.24,1721200931917
4.38,-0.27,13.75,-0.13,0.06,-0.24,1721200931927
-1.36,1.47,16.38,0.01,-0.24,-0.53,1721200931937
-5.41,3.1,9.7,0.22,-0.12,-0.19,1721200931947
-2.09,-6.95,-0.79,-0.15,-0.05,0.18,1721200931957
2.65,-5.06,14.28,-0.21,0.17,0.08,1721200931967
2.84,1.66,6.05,-0.01,-0.27,-0.39,1721200931977
-1.73,3.38,14.74,-0.13,0.1,-0.43,1721200931987
-1.62,-1.85,1.45,0.11,-0.11,-0.13,1721200931997
-0.6,-5.51,6.06,-0.28,0.23,0.04,1721200932007
1.78,-3.68,27.93,-0.18,0.28,-0.34,1721200932017
-0.82,6.68,14.66,0.37,0.02,-0.26,1721200932027
-0.96,7.64,-2.19,-0.01,0.17,-0.29,1721200932037
7.66,-1.37,15.61,-0.41,0.38,-0.14,1721200932047
1.65,-1.21,15.75,0.08,-0.03,-0.14,1721200932057
-0.11,1.79,1.77,-0.19,0.09,-0.42,1721200932067
-3.32,-5.32,7.35,-0.26,0.02,-0.4,1721200932077
-3.23,-2.68,14.73,0.02,0.19,-0.05,1721200932087
1.23,3.13,4.81,-0.02,0.33,0.02,1721200932097
0.11,4.57,12.23,0.11,-0.05,-0.05,1721200932107
3.43,12.95,14.38,0.31,0.57,-0.44,1721200932117
0.99,-4.14,8.22,0.05,0.02,-0.55,1721200932127
-8.24,-0.58,16.7,0.08,-0.06,-0.13,1721200932137
-2.98,-2.45,5.69,0.2,0.27,0.24,1721200932147
2.25,-1.91,7.05,-0.05,0.25,0.24,1721200932157
1.32,6.86,12.65,0.23,0.04,-0.17,1721200932167
3.06,3.0,5.38,0.03,0.22,-0.22,1721200932177
-1.06,3.83,10.22,0.22,0.05,-0.33,1721200932187
-0.19,-6.1,7.7,-0.12,0.33,-0.16,1721200932196
-0.79,-1.78,20.19,0.05,0.1,0.12,1721200932206
-0.86,8.33,10.86,0.41,0.02,0.03,1721200932216
1.85,10.1,-0.71,0.35,0.33,-0.08,1721200932226
2.59,2.77,-3.19,-0.08,0.22,-0.18,1721200932236
4.5,0.47,13.17,-0.29,0.42,-0.36,1721200932246
0.46,-1.49,16.36,-0.01,0.26,-0.36,1721200932256
-6.96,3.44,2.66,0.17,-0.08,-0.13,1721200932266
-1.03,-0.46,5.93,-0.45,0.4,0.28,1721200932276
2.47,1.76,21.92,0.11,0.24,-0.15,1721200932286
1.73,4.3,8.01,0.28,0.1,-0.3,1721200932296
-1.86,4.03,0.75,-0.04,0.24,-0.26,1721200932306
0.31,-6.65,14.85,-0.26,0.58,-0.24,1721200932316
1.01,0.03,26.18,0.18,0.31,-0.04,1721200932326
-0.97,6.58,-0.18,0.29,-0.13,-0.22,1721200932336
-2.68,-0.06,4.07,-0.2,0.48,-0.31,1721200932346
-0.47,-4.43,6.33,-0.21,0.32,-0.01,1721200932356
1.25,-6.2,21.01,-0.23,0.41,-0.11,1721200932366
-0.35,9.05,12.11,0.42,0.03,-0.21,1721200932376
-0.1,-4.85,2.39,-0.46,0.29,-0.22,1721200932386
-7.23,-4.62,24.95,0.02,-0.31,0.1,1721200932396
-0.79,-5.17,7.35,0.06,0.29,0.17,1721200932406
0.76,-3.34,2.92,-0.11,0.07,0.08,1721200932416
-3.79,5.37,13.64,-0.18,0.26,-0.37,1721200932426
-1.13,0.61,5.01,0.09,0.1,-0.01,1721200932436
1.38,-8.46,14.31,-0.27,0.5,-0.02,1721200932446
-0.41,0.74,14.09,0.07,0.12,-0.05,1721200932456
-2.6,4.27,12.7,-0.1,0.24,-0.1,1721200932466
-3.71,0.94,5.89,0.05,-0.1,0.11,1721200932476
-2.22,-0.23,11.84,-0.08,0.33,0.33,1721200932486
5.32,0.93,19.56,0.19,0.17,0.26,1721200932496
5.12,-0.93,10.33,-0.05,-0.04,-0.17,1721200932506
-5.59,6.31,5.5,0.04,-0.26,-0.34,1721200932516
-7.05,-3.34,9.81,-0.06,0.52,-0.09,1721200932526
-0.43,-5.08,15.43,0.11,0.17,0.43,1721200932536
1.04,8.88,8.65,0.18,0.07,0.31,1721200932546
3.89,0.39,4.15,-0.12,0.02,-0.06,1721200932556
-4.0,3.73,19.53,0.07,0.25,-0.36,1721200932566
-4.26,0.87,3.63,0.34,0.05,-0.17,1721200932576
-2.85,-5.66,4.07,-0.26,0.17,0.28,1721200932586
-2.81,9.52,16.46,0.27,-0.21,0.49,1721200932596
4.08,0.31,2.77,-0.07,0.14,0.29,1721200932606
0.28,2.43,18.94,-0.03,-0.16,-0.13,1721200932616
-2.15,-5.71,-1.11,0.02,0.0,-0.22,1721200932626
-5.31,2.43,12.0,-0.2,0.44,-0.04,1721200932636
-2.56,4.17,9.52,0.14,-0.09,0.23,1721200932646
0.93,0.51,12.42,-0.05,0.26,0.43,1721200932656
3.39,-0.55,10.23,0.08,-0.13,0.28,1721200932666
0.93,5.94,15.78,-0.03,0.07,-0.17,1721200932676
-3.39,-4.25,4.7,-0.18,-0.32,0.05,1721200932686
-9.6,-0.9,10.7,-0.21,-0.15,0.43,1721200932696
-1.46,-2.01,6.23,0.03,0.04,0.6,1721200932706
5.2,-0.73,14.49,-0.22,0.1,0.63,1721200932716
6.47,6.34,12.29,0.16,-0.24,0.22,1721200932726
3.37,3.84,8.76,-0.06,0.07,-0.18,1721200932736
-1.3,-1.51,16.01,-0.08,-0.03,0.04,1721200932746
-4.12,-4.23,9.77,-0.09,-0.16,0.3,1721200932756
-3.37,2.0,14.93,-0.07,-0.12,0.43,1721200932766
-0.25,1.47,1.77,-0.01,-0.36,0.43,1721200932776
3.08,2.09,13.38,-0.22,0.07,0.2,1721200932786
6.51,-0.93,13.72,0.08,-0.18,-0.05,1721200932796
0.61,-3.31,5.18,-0.06,-0.16,-0.18,1721200932806
-5.87,2.61,10.3,-0.06,-0.16,0.04,1721200932816
-1.49,-0.86,13.65,-0.06,-0.07,0.33,1721200932826
4.13,-1.25,12.83,0.1,-0.06,0.38,1721200932836
5.55,-1.3,7.28,-0.02,-0.19,0.06,1721200932846
-0.75,6.92,9.15,0.03,-0.2,-0.44,1721200932856
-1.89,-4.65,11.06,-0.2,0.02,-0.37,1721200932866
-3.65,0.26,6.8,0.09,-0.28,0.37,1721200932876
1.29,-2.87,8.89,-0.24,0.27,-0.06,1721200932886
-0.05,1.98,16.06,0.09,-0.27,0.05,1721200932896
2.09,1.11,13.52,0.01,0.1,-0.07,1721200932906
0.62,5.38,10.82,0.12,0.03,-0.22,1721200932916
-2.03,2.53,7.07,0.06,-0.27,-0.07,1721200932926
-0.22,1.83,8.33,0.04,0.17,-0.1,1721200932936
0.73,-3.54,11.37,0.01,-0.04,0.01,1721200932946
-0.72,2.66,7.82,0.12,-0.05,0.13,1721200932956
1.13,2.76,11.35,0.01,0.0,-0.1,1721200932966
2.24,1.85,11.47,0.24,-0.13,-0.0,1721200932976
2.04,-1.87,1.81,-0.08,0.04,-0.13,1721200932986
-1.71,-1.95,18.23,-0.08,0.02,-0.28,1721200932996
-2.66,2.88,5.25,0.33,-0.04,0.06,1721200933006
1.27,6.21,12.15,-0.0,0.35,0.12,1721200933016
3.19,10.27,9.22,0.36,-0.11,0.01,1721200933026
5.06,-1.82,9.64,-0.25,0.24,-0.41,1721200933036
-0.87,2.31,13.83,0.29,-0.19,-0.4,1721200933046
-4.56,2.95,0.0,-0.03,0.14,-0.24,1721200933056
-4.55,0.7,14.07,-0.15,0.1,0.03,1721200933066
0.21,-4.62,6.91,0.03,-0.09,0.19,1721200933076
1.15,3.32,9.77,-0.01,0.21,-0.03,1721200933086
1.76,1.65,11.52,0.01,0.14,-0.25,1721200933096
-1.17,-2.1,8.57,-0.11,0.0,-0.31,1721200933106
-1.98,0.94,16.29,-0.03,0.11,0.04,1721200933116
0.55,4.2,11.03,0.17,0.05,-0.04,1721200933126
0.59,-0.45,11.03,-0.0,0.08,-0.27,1721200933136
-2.41,0.7,8.0,0.07,-0.07,-0.18,1721200933146
-0.53,-6.21,6.04,-0.31,0.08,-0.01,1721200933156
-3.85,4.32,14.24,0.08,-0.33,-0.23,1721200933166
-2.26,-3.37,-0.41,0.02,0.03,-0.11,1721200933176
-0.99,-6.56,13.33,-0.3,0.27,-0.09,1721200933186
-1.26,4.53,11.57,0.2,-0.07,-0.08,1721200933196
0.28,-0.93,9.95,-0.3,0.19,-0.06,1721200933206
-1.35,3.1,22.12,0.18,-0.11,0.01,1721200933216
-0.3,-3.12,3.23,-0.02,-0.18,0.04,1721200933226
-3.16,2.5,11.91,-0.16,-0.16,0.02,1721200933236
-1.77,-1.02,-0.14,0.02,-0.21,-0.08,1721200933246
-0.86,-8.18,7.74,-0.53,0.32,-0.03,1721200933256
-2.0,-0.96,21.26,0.0,-0.07,-0.11,1721200933266
-1.9,-1.32,5.27,-0.09,-0.22,0.04,1721200933276
-1.95,3.49,18.71,-0.08,0.29,-0.12,1721200933286
-0.21,1.56,4.69,0.13,-0.28,0.06,1721200933296
-0.96,-7.75,6.1,-0.31,0.06,0.12,1721200933306
1.92,-1.51,27.48,0.26,0.07,0.03,1721200933316
0.07,4.92,1.18,0.46,-0.38,0.06,1721200933326
2.82,7.66,13.77,-0.14,0.3,-0.04,1721200933336
-0.56,4.9,16.02,0.37,-0.25,-0.13,1721200933346
-1.61,-6.93,-1.37,-0.07,-0.17,0.1,1721200933356
-2.7,0.92,15.15,0.12,0.01,0.05,1721200933366
-0.21,5.6,3.61,0.43,-0.29,0.21,1721200933376
2.12,5.82,10.87,-0.13,0.39,0.13,1721200933386
2.81,-0.28,15.01,0.09,-0.25,-0.02,1721200933396
0.09,-0.2,9.48,0.01,-0.17,-0.11,1721200933406
0.91,5.77,14.56,0.21,-0.03,-0.2,1721200933416
0.73,-0.59,9.31,0.07,-0.14,-0.09,1721200933426
-0.98,2.72,10.87,0.31,-0.29,0.21,1721200933436
1.24,-7.2,4.7,-0.23,-0.11,0.05,1721200933446
-5.13,11.58,14.79,0.35,-0.57,-0.11,1721200933456
0.16,-0.79,-2.89,-0.21,0.23,-0.16,1721200933466
-4.17,-6.3,14.28,-0.2,-0.25,0.16,1721200933476
1.09,-2.53,12.5,0.1,0.15,0.25,1721200933486
4.9,4.82,19.32,0.05,0.01,-0.0,1721200933496
1.5,3.7,12.07,0.18,-0.58,-0.15,1721200933506
0.64,-0.87,7.35,-0.16,0.09,-0.33,1721200933516
-0.31,-3.99,4.09,-0.01,-0.37,-0.23,1721200933526
-4.45,-1.33,7.56,-0.14,-0.02,-0.35,1721200933536
-3.33,0.81,10.77,0.26,0.05,-0.33,1721200933546
-3.93,-0.47,7.09,-0.11,-0.11,-0.01,1721200933556
-0.89,0.9,20.73,-0.05,-0.05,0.26,1721200933566
3.86,1.57,10.26,0.13,-0.05,0.0,1721200933576
1.07,3.58,6.5,-0.16,-0.08,-0.61,1721200933586
-5.72,-1.33,6.94,-0.11,-0.39,-0.72,1721200933596
-6.65,-3.13,10.53,0.03,0.04,0.04,1721200933606
-0.11,-2.87,11.97,-0.05,0.01,0.42,1721200933616
2.42,6.49,8.94,0.24,-0.32,0.23,1721200933626
7.1,7.49,13.12,-0.11,0.44,-0.29,1721200933636
3.59,2.24,20.55,-0.02,-0.23,-0.76,1721200933646
-4.37,0.03,6.05,0.1,-0.26,-0.54,1721200933656
-3.47,-0.07,5.62,-0.1,0.12,-0.17,1721200933666
-1.65,4.41,10.26,0.13,-0.15,-0.02,1721200933676
-0.41,3.75,1.85,0.07,0.0,-0.06,1721200933686
4.47,-3.79,21.14,-0.35,0.32,-0.26,1721200933701
2.11,-1.97,23.75,-0.01,0.3,-0.27,1721200933705
2.25,-0.95,0.75,0.27,-0.14,-0.53,1721200933715
-4.92,1.83,14.99,-0.24,0.42,-0.67,1721200933725
-4.67,5.55,14.14,0.32,0.12,-0.37,1721200933735
-0.5,-6.23,3.65,-0.1,0.03,-0.1,1721200933745
-3.17,0.34,9.87,0.04,0.02,-0.12,1721200933755
1.74,-1.2,10.02,-0.06,0.42,-0.33,1721200933765
-0.17,2.74,14.6,0.16,-0.19,-0.22,1721200933775
-2.2,4.67,0.93,0.24,0.18,-0.26,1721200933785
1.76,-5.26,7.74,-0.38,0.36,-0.25,1721200933795
-2.38,2.52,24.26,-0.11,-0.16,-0.1,1721200933805
-1.38,2.94,7.49,0.19,0.09,-0.15,1721200933815
0.41,2.21,10.18,0.05,0.43,-0.34,1721200933825
-2.11,0.87,0.2,0.14,-0.09,-0.24,1721200933835
-3.17,-2.49,9.84,-0.39,0.47,-0.24,1721200933845
0.15,5.02,22.05,0.31,0.21,-0.07,1721200933855
1.78,-3.5,-2.56,-0.04,0.0,-0.11,1721200933865
-3.98,1.07,20.64,-0.06,0.39,-0.34,1721200933875
-0.75,6.15,8.27,0.4,0.15,-0.32,1721200933885
-1.73,-3.05,8.13,-0.4,0.27,-0.19,1721200933895
-4.64,-1.7,14.57,0.16,-0.11,0.09,1721200933905
0.67,-5.77,0.03,-0.0,0.39,0.19,1721200933915
2.12,3.61,19.01,0.06,0.19,0.09,1721200933925
2.09,7.13,10.41,0.43,0.0,-0.21,1721200933935
-0.03,-3.09,8.0,-0.33,0.19,-0.36,1721200933945
-3.93,-1.85,15.24,-0.0,-0.09,-0.16,1721200933955
-1.54,-1.03,12.75,0.03,0.4,-0.0,1721200933965
-0.56,3.21,3.07,0.26,-0.15,0.29,1721200933975
-2.78,3.5,0.34,-0.22,0.25,-0.09,1721200933985
0.02,-1.95,19.34,-0.14,0.34,-0.13,1721200933995
-1.04,-3.64,8.4,0.05,-0.1,0.16,1721200934005
1.59,3.39,15.41,-0.01,0.41,0.22,1721200934015
3.12,0.05,5.15,0.03,-0.09,-0.05,1721200934025
-2.6,0.31,15.82,-0.12,0.23,-0.26,1721200934035
-1.62,1.46,8.66,0.27,0.15,-0.07,1721200934045
2.05,-2.4,14.93,-0.31,0.43,0.02,1721200934055
-1.16,9.59,15.1,0.4,-0.32,0.13,1721200934065
0.48,-0.15,-1.48,-0.15,0.18,0.11,1721200934075
-2.26,-1.62,19.06,-0.03,-0.04,0.02,1721200934085
-1.99,-3.33,2.47,0.05,-0.12,0.01,1721200934095
-1.06,-3.42,13.75,-0.37,0.34,0.13,1721200934105
2.48,5.39,22.8,0.28,0.15,0.11,1721200934115
3.8,3.0,5.01,0.03,0.15,-0.1,1721200934125
-0.3,0.67,7.66,-0.1,-0.13,-0.22,1721200934135
-2.96,-2.0,10.37,-0.02,0.05,-0.03,1721200934145
-1.94,2.83,13.47,0.09,0.15,0.09,1721200934155
-0.57,1.3,12.35,-0.05,0.08,0.06,1721200934165
-0.07,-0.03,8.57,0.11,-0.18,0.11,1721200934175
2.84,0.04,8.26,-0.08,0.4,-0.09,1721200934185
1.25,3.04,14.35,0.02,-0.04,-0.23,1721200934195
-4.49,2.93,0.45,0.02,-0.27,-0.04,1721200934205
-1.12,-4.65,14.11,-0.24,0.43,-0.01,1721200934215
1.76,-2.14,18.13,0.19,-0.13,0.23,1721200934225
2.2,6.0,7.82,0.08,0.14,-0.04,1721200934235
0.96,4.08,13.57,-0.14,0.2,-0.5,1721200934245
-3.29,0.54,9.58,0.14,-0.21,-0.38,1721200934255
-4.7,-7.5,3.3,-0.15,0.11,0.04,1721200934265
-2.85,-0.57,17.32,-0.07,0.2,0.27,1721200934275
2.45,5.98,10.77,0.28,-0.05,0.26,1721200934285
4.92,1.32,7.15,-0.09,0.05,0.05,1721200934295
0.67,-0.96,8.79,-0.14,0.01,-0.37,1721200934305
-1.53,-3.12,9.88,-0.08,0.09,-0.42,1721200934315
-4.22,-2.14,13.35,0.04,0.13,-0.17,1721200934325
-2.7,6.41,9.86,0.14,0.1,0.13,1721200934335
1.84,6.73,9.23,0.14,0.08,0.14,1721200934345
3.99,-1.3,12.19,-0.1,0.05,-0.11,1721200934355
0.03,2.33,17.87,0.12,-0.12,-0.23,1721200934365
-4.0,6.53,2.84,0.15,-0.03,-0.04,1721200934375
-2.95,0.03,7.26,-0.22,0.14,0.03,1721200934385
-1.47,-5.45,10.34,0.02,-0.12,0.01,1721200934395
0.53,-1.15,13.31,0.02,0.19,0.05,1721200934405
2.89,7.98,11.4,0.18,0.12,-0.04,1721200934415
1.74,1.97,5.74,-0.08,0.0,-0.24,1721200934425
-2.64,-0.28,10.29,-0.04,-0.04,-0.22,1721200934435
-3.68,-0.87,9.28,0.09,0.13,-0.03,1721200934445
-2.44,2.17,12.05,-0.0,0.1,0.1,1721200934455
1.15,2.06,11.16,0.08,-0.01,0.24,1721200934465
1.8,3.34,12.48,-0.15,0.2,-0.01,1721200934475
2.3,2.49,14.1,0.1,-0.0,-0.1,1721200934485
-0.88,0.21,10.73,-0.1,0.16,-0.18,1721200934495
-2.51,-2.88,9.9,-0.08,-0.05,0.01,1721200934505
-3.54,0.02,9.03,0.03,-0.1,0.26,1721200934515
0.99,-0.31,4.7,0.03,-0.01,0.36,1721200934525
3.51,1.23,7.04,0.01,-0.02,-0.02,1721200934535
3.4,3.01,18.47,0.0,0.33,-0.39,1721200934545
-0.92,1.16,10.89,-0.03,-0.1,-0.26,1721200934555
-4.91,0.15,10.46,-0.04,0.01,0.12,1721200934565
-2.25,3.13,6.49,0.03,0.08,0.21,1721200934575
2.71,-0.19,10.69,-0.11,-0.03,0.3,1721200934585
0.92,2.11,8.74,0.11,-0.35,0.29,1721200934595
1.02,-0.62,1.45,-0.08,0.05,0.02,1721200934605
0.29,-1.66,17.5,-0.22,0.1,-0.14,1721200934615
1.03,0.11,17.49,0.1,0.0,0.02,1721200934625
0.55,4.08,13.16,0.12,0.05,0.02,1721200934635
0.71,1.83,5.01,0.02,-0.11,0.01,1721200934645
-1.34,3.23,13.81,-0.03,0.05,-0.15,1721200934655
-1.98,-0.82,2.94,0.13,-0.28,-0.01,1721200934665
-4.2,1.23,12.26,-0.11,-0.03,-0.02,1721200934675
-0.3,0.85,9.74,0.26,-0.08,0.13,1721200934685
2.54,-4.43,5.3,-0.27,0.24,0.01,1721200934695
-0.19,4.4,17.79,0.12,-0.3,-0.02,1721200934705
1.2,7.51,8.96,0.21,0.1,0.08,1721200934715
4.16,1.04,11.22,-0.08,0.1,-0.01,1721200934725
1.36,2.04,15.74,0.11,-0.16,-0.14,1721200934735
-1.64,0.69,-0.43,0.07,-0.22,-0.2,1721200934745
-3.27,-0.26,9.36,-0.2,-0.03,-0.19,1721200934755
-2.69,4.07,12.73,0.21,-0.03,0.02,1721200934765
2.36,-0.33,6.45,-0.05,0.08,0.04,1721200934775
2.31,-1.98,9.52,-0.11,-0.13,-0.13,1721200934785
0.2,3.28,12.39,0.01,0.01,-0.46,1721200934795
-2.44,7.26,11.12,0.13,0.04,-0.42,1721200934805
-5.71,-3.24,3.87,-0.18,-0.1,-0.15,1721200934815
-4.0,-4.37,12.93,-0.08,0.09,0.17,1721200934825
3.63,-4.3,9.62,-0.02,0.07,0.07,1721200934835
2.93,4.17,12.67,0.05,0.02,-0.39,1721200934845
-0.68,12.7,9.91,0.3,0.08,-0.61,1721200934855
-0.14,-5.41,6.34,-0.25,0.01,-0.2,1721200934865
-2.56,-4.51,18.29,-0.2,-0.05,-0.01,1721200934875
-0.24,-1.58,5.74,0.04,-0.02,-0.2,1721200934885
-3.24,7.9,8.11,-0.02,0.22,-0.52,1721200934895
-2.43,1.31,6.37,0.0,0.11,-0.37,1721200934905
-0.61,-5.68,12.56,-0.18,0.17,0.07,1721200934915
1.39,-0.57,15.31,-0.03,0.06,0.05,1721200934925
1.99,8.38,12.14,0.07,0.07,-0.3,1721200934935
1.55,1.71,3.41,-0.08,-0.01,-0.56,1721200934945
-6.1,0.57,10.81,-0.03,-0.04,-0.51,1721200934955
-4.17,-1.37,8.91,0.04,0.18,-0.05,1721200934965
-0.83,-0.71,13.44,-0.06,0.11,0.04,1721200934975
-1.71,1.31,6.15,-0.03,0.0,-0.2,1721200934985
-3.06,3.84,3.08,-0.09,0.15,-0.37,1721200934995
-1.88,-2.04,14.65,-0.25,0.28,-0.18,1721200935005
-2.12,-0.46,11.52,0.13,-0.03,0.17,1721200935015
2.65,0.15,8.1,-0.19,0.4,0.2,1721200935025
1.87,12.41,19.36,0.04,-0.01,-0.15,1721200935035
1.27,2.97,7.62,-0.01,-0.05,-0.21,1721200935045
-3.88,-1.06,8.19,-0.08,0.05,-0.24,1721200935055
-2.78,8.04,10.95,0.21,0.15,0.04,1721200935065
-3.34,-2.19,3.42,-0.17,-0.18,0.28,1721200935075
7.01,-2.56,18.7,-0.07,0.47,0.61,1721200935085
9.46,3.14,4.42,0.12,-0.02,-0.36,1721200935095
0.17,1.72,12.86,-0.3,0.17,-0.83,1721200935105
-12.91,6.67,14.05,0.28,-0.08,-0.89,1721200935115
-16.19,-5.17,8.35,-0.1,0.27,-0.07,1721200935125
-8.74,-5.42,12.1,0.17,-0.07,1.36,1721200935135
5.45,1.64,3.69,0.15,0.14,1.57,1721200935145
14.28,1.91,13.56,-0.02,0.17,0.72,1721200935155
12.03,1.22,9.15,0.07,-0.38,-0.24,1721200935165
5.6,-1.66,9.76,-0.08,0.09,-1.11,1721200935175
-5.01,-7.24,8.93,-0.18,-0.41,-1.04,1721200935185
-18.96,1.69,13.32,0.13,-0.18,-0.05,1721200935195
-6.67,1.03,11.6,0.22,0.47,0.93,1721200935205
4.52,-0.76,8.91,0.17,0.02,0.88,1721200935215
5.51,-2.29,7.62,-0.16,-0.26,0.29,1721200935225
3.12,2.12,14.42,-0.01,-0.1,-0.41,1721200935235
-0.81,4.0,12.79,0.22,-0.09,-0.37,1721200935245
-3.44,-12.0,-0.63,-0.02,-0.23,0.25,1721200935255
-2.18,-3.19,17.42,-0.03,-0.13,0.31,1721200935265
3.38,10.48,11.43,0.33,-0.13,0.35,1721200935275
6.75,-0.22,8.12,-0.03,0.3,-0.15,1721200935285
-1.56,-8.02,11.78,-0.11,-0.41,-0.34,1721200935295
-7.58,7.15,6.12,0.05,-0.22,0.02,1721200935305
-1.36,5.68,13.36,0.05,0.34,0.21,1721200935315
3.83,-1.83,11.35,0.21,-0.07,0.44,1721200935325
5.32,1.43,6.08,0.08,0.0,0.08,1721200935335
4.64,0.22,18.85,-0.04,0.07,-0.45,1721200935345
-3.64,4.02,8.89,0.23,-0.3,-0.32,1721200935355
-5.34,-0.86,1.02,-0.12,0.02,0.05,1721200935365
-1.38,-4.46,10.3,-0.09,-0.17,0.28,1721200935375
3.29,-0.93,8.62,-0.08,-0.02,0.24,1721200935385
4.1,0.31,10.17,-0.2,0.07,-0.22,1721200935395
-0.99,8.41,16.97,0.22,0.01,-0.4,1721200935405
-1.27,2.6,6.0,0.14,0.15,-0.17,1721200935415
-1.86,-7.53,5.28,-0.18,-0.11,0.31,1721200935425
-1.29,6.42,15.47,0.18,-0.08,0.1,1721200935435
4.1,-0.98,7.31,-0.07,0.13,-0.15,1721200935445
-1.48,-6.69,9.2,-0.02,-0.3,-0.06,1721200935455
-1.46,-3.47,7.97,-0.03,0.22,-0.19,1721200935465
-1.58,9.16,16.44,0.19,0.02,-0.11,1721200935475
0.39,8.37,10.01,0.05,0.06,0.11,1721200935485
1.64,-3.87,3.64,-0.07,-0.04,-0.02,1721200935495
2.4,-4.33,15.61,-0.15,0.35,-0.19,1721200935505
1.4,0.45,12.58,-0.14,-0.0,-0.34,1721200935515
-4.29,4.41,10.26,0.08,-0.19,-0.36,1721200935525
-1.1,6.03,11.69,0.22,0.39,0.06,1721200935535
2.46,-2.46,10.22,-0.18,0.13,0.14,1721200935545
-1.71,3.67,18.9,-0.08,-0.09,-0.3,1721200935555
1.45,1.63,0.04,-0.08,-0.0,-0.27,1721200935565
0.74,2.51,18.06,-0.07,0.27,-0.4,1721200935575
-1.94,2.2,3.24,0.32,-0.23,-0.25,1721200935585
-2.83,-6.28,1.15,-0.29,0.14,-0.04,1721200935595
-0.89,4.77,18.37,0.16,0.18,-0.2,1721200935605
3.42,4.45,5.8,0.01,0.23,-0.29,1721200935615
-3.79,-4.03,11.85,-0.19,-0.2,-0.4,1721200935625
-6.17,-1.98,9.47,0.08,0.05,-0.14,1721200935635
-1.54,-2.0,6.76,-0.08,0.24,0.1,1721200935645
14.27,7.55,3.25,0.49,0.4,0.27,1721397176670
10.32,2.34,5.89,-0.08,0.47,-0.21,1721397176675
12.35,-1.54,32.06,-0.71,-0.4,-0.86,1721397176685
-11.37,5.88,37.55,-0.06,-1.02,-0.88,1721397176695
-5.82,-11.34,2.01,0.31,-0.35,-0.38,1721397176704
-11.74,18.05,-1.71,-0.2,0.36,0.41,1721397176714
-0.01,6.42,-2.9,0.17,0.37,1.01,1721397176724
0.69,-3.72,19.08,-0.38,0.5,0.28,1721397176734
1.71,-12.66,24.2,-0.12,-0.36,-0.19,1721397176743
-0.07,-10.58,8.54,-0.42,0.23,-0.75,1721397176753
-7.94,-1.27,10.85,-0.2,-0.31,-0.38,1721397176762
-5.19,14.44,9.39,0.21,0.32,0.09,1721397176772
-5.62,-10.37,9.06,-0.45,-0.03,0.32,1721397176782
3.18,0.98,28.23,-0.12,0.26,0.13,1721397176792
8.51,7.39,9.9,-0.06,0.16,0.36,1721397176802
2.77,-9.04,5.51,-0.63,0.16,0.16,1721397176812
-3.56,-12.25,8.26,0.04,-0.11,-0.19,1721397176822
-4.43,-12.39,-0.74,0.35,0.03,-0.11,1721397176832
-3.91,2.36,9.76,0.46,-0.1,0.29,1721397176842
5.52,17.03,24.38,0.01,0.32,0.7,1721397176852
-0.23,28.31,18.15,-0.31,-0.52,0.66,1721397176862
7.18,-3.6,3.34,-0.34,0.4,-0.01,1721397176872
-3.07,-26.59,-6.74,-0.41,-0.35,-0.33,1721397176882
-6.04,-10.78,18.59,0.2,0.03,-0.14,1721397176892
-7.97,-10.96,6.44,0.53,-0.61,0.63,1721397176902
3.12,-5.97,20.4,0.38,0.68,0.79,1721397176911
3.86,34.46,13.77,0.96,-0.8,1.0,1721397176921
13.6,26.93,0.84,-0.05,0.66,0.72,1721397176931
8.89,-11.02,10.41,-1.17,0.06,-0.54,1721397176941
-8.29,-39.59,26.43,-0.39,-1.06,-1.66,1721397176951
-15.0,-6.89,16.92,0.43,-0.48,0.19,1721397176961
-10.63,-9.42,5.78,0.53,0.3,1.33,1721397176971
1.89,7.97,-1.39,1.26,-0.2,1.42,1721397176981
13.8,35.51,10.37,0.47,0.43,0.74,1721397176991
8.69,47.08,12.5,-0.17,-0.28,0.12,1721397177001
8.81,-41.16,0.83,-1.03,-0.03,-0.69,1721397177011
-2.17,-28.89,32.28,-0.67,0.39,-1.24,1721397177021
-11.15,7.68,6.15,0.69,-0.86,-0.2,1721397177031
-5.98,-5.13,2.72,-0.12,0.61,0.32,1721397177041
2.1,44.28,6.29,0.87,-0.43,0.91,1721397177051
2.51,17.91,-22.69,-0.29,0.71,0.93,1721397177061
15.14,-14.12,10.59,-1.61,0.88,-0.05,1721397177071
2.81,-30.05,54.21,-0.83,-0.15,-1.67,1721397177081
-14.05,7.47,25.19,0.37,-1.08,-1.44,1721397177091
-18.32,-4.23,-4.92,0.27,-0.16,0.23,1721397177101
-11.13,6.43,-2.63,0.7,-0.35,1.9,1721397177111
9.65,-5.45,2.0,0.61,0.37,1.65,1721397177121
17.14,30.66,19.87,0.37,0.25,0.59,1721397177131
11.57,2.52,10.27,-0.76,-0.28,-0.64,1721397177141
5.35,-7.6,18.76,-1.06,0.19,-1.74,1721397177151
-5.84,-17.72,13.07,-0.42,-0.72,-1.17,1721397177161
-14.86,-2.71,3.58,0.27,-0.17,0.06,1721397177171
-4.04,6.01,-5.02,1.09,-0.18,1.08,1721397177181
4.41,-1.09,3.03,0.14,0.57,1.23,1721397177191
11.62,21.13,25.59,-0.25,0.7,0.21,1721397177201
6.38,-34.37,16.67,-1.37,-0.59,-1.11,1721397177211
-6.11,-3.51,35.93,-1.0,0.01,-2.37,1721397177221
-16.92,-8.1,13.76,0.39,-0.92,-1.07,1721397177231
-20.36,-14.28,-9.68,-0.01,0.19,0.93,1721397177241
5.09,7.22,21.51,0.14,0.69,1.74,1721397177251
12.21,27.83,12.0,0.83,0.24,1.47,1721397177261
14.13,-21.63,13.18,-0.51,-0.5,-0.17,1721397177271
4.95,1.37,19.78,-0.28,0.14,-1.81,1721397177281
-1.91,-16.16,7.85,0.21,-0.55,-1.44,1721397177291
-15.14,-5.16,-2.32,0.53,0.18,-0.39,1721397177301
-7.56,4.32,4.04,0.88,0.03,0.72,1721397177311
2.75,9.06,4.09,0.48,0.28,1.12,1721397177321
6.64,0.17,5.71,-0.14,0.73,0.32,1721397177331
9.88,-23.61,19.6,-0.97,0.04,-1.05,1721397177341
-6.73,25.31,24.56,-0.0,-0.44,-1.83,1721397177351
-9.77,1.94,2.92,0.49,0.12,-0.78,1721397177361
-12.14,-2.25,4.53,0.16,-0.16,0.85,1721397177371
0.54,-3.71,4.68,0.37,0.52,1.02,1721397177381
10.97,5.5,6.94,-0.03,0.21,0.04,1721397177391
6.35,-3.49,8.79,-0.25,-0.02,-1.07,1721397177401
-1.62,-14.42,14.54,-0.29,-0.03,-1.51,1721397177411
-12.71,5.73,15.41,0.02,-0.21,-0.9,1721397177421
-10.79,12.23,13.97,0.19,0.22,0.13,1721397177431
-4.9,-8.88,9.27,-0.02,-0.18,0.86,1721397177441
8.13,1.6,12.38,0.19,0.51,0.74,1721397177451
10.43,1.19,5.73,0.1,-0.16,-0.01,1721397177461
7.56,13.88,7.81,-0.11,0.4,-0.99,1721397177471
-2.01,0.04,6.95,-0.22,-0.44,-1.15,1721397177481
-12.07,-26.77,9.47,-0.8,0.04,-0.83,1721397177491
-12.37,4.3,28.79,0.02,0.1,0.03,1721397177501
-7.74,-7.94,-3.95,0.6,-0.2,0.94,1721397177511
2.1,3.98,14.03,0.37,0.65,1.06,1721397177521
9.42,35.88,12.34,0.64,0.09,0.5,1721397177531
7.56,1.25,9.28,-0.62,-0.73,-0.31,1721397177541
-1.31,-16.21,7.73,-1.02,0.05,-1.14,1721397177551
-9.23,-23.47,15.7,-0.63,0.02,-0.87,1721397177561
-15.88,7.23,16.8,0.52,-0.43,0.56,1721397177571
-4.35,-10.09,-6.67,0.89,0.33,1.86,1721397177581
13.03,2.86,9.59,0.69,0.62,1.74,1721397177591
23.37,27.61,10.53,0.32,0.46,0.56,1721397177601
17.45,11.87,20.39,-0.82,-0.32,-0.94,1721397177611
-4.69,-3.17,9.6,-0.39,-0.96,-1.75,1721397177621
-18.21,-31.22,-3.28,-0.96,0.07,-1.3,1721397177631
-25.07,0.05,30.53,0.11,-0.56,0.68,1721397177641
-7.79,-8.62,-0.3,0.82,0.25,2.43,1721397177651
11.43,-2.95,3.42,0.54,0.37,2.54,1721397177661
15.16,5.57,4.83,0.65,0.03,1.06,1721397177671
25.2,23.13,16.82,-0.15,0.15,-0.96,1721397177681
-1.33,-11.64,20.47,-0.85,-1.62,-1.9,1721397177691
-16.94,-10.63,32.93,0.11,-0.26,-2.05,1721397177701
-21.95,-3.03,-1.62,0.77,-0.79,-0.26,1721397177711
-16.35,-2.8,-4.45,0.17,0.41,1.68,1721397177721
0.23,14.89,-8.95,0.96,0.06,2.58,1721397177731
20.18,2.21,-6.16,-0.46,0.35,1.75,1721397177741
30.51,2.54,37.0,-0.87,0.72,-0.4,1721397177751
14.68,-11.25,49.86,0.12,-0.96,-1.89,1721397177761
-12.79,-10.05,2.34,0.77,-1.06,-1.95,1721397177771
-18.05,6.24,-5.14,0.52,0.13,-0.21,1721397177781
-12.88,-0.22,-12.24,0.9,-0.34,1.84,1721397177791
6.9,16.31,-11.86,0.23,0.69,1.94,1721397177801
22.74,3.09,24.22,-0.43,0.34,0.31,1721397177811
-0.86,-18.43,47.04,-0.61,-1.57,-1.42,1721397177821
-5.31,-12.3,40.34,0.41,0.02,-2.48,1721397177831
-20.73,-12.85,-8.13,0.79,-1.26,-0.63,1721397177841
-18.74,4.93,14.81,-0.03,0.95,1.24,1721397177851
4.53,26.65,-1.34,1.3,0.04,2.06,1721397177861
21.35,-18.1,-9.92,-1.15,0.6,0.86,1721397177871
12.22,6.93,29.41,-0.12,0.25,-1.23,1721397177881
13.45,-42.67,1.41,-0.86,-0.7,-1.64,1721397177891
-23.6,4.08,43.77,0.0,-0.01,-1.51,1721397177901
-1.87,14.61,7.57,1.35,0.05,-0.06,1721397177911
-8.65,-4.34,-24.26,-0.78,-0.57,1.27,1721397177921
5.26,-16.12,2.49,-0.11,0.94,0.73,1721397177931
13.14,9.33,15.87,0.05,-0.43,-0.15,1721397177941
-7.5,9.08,11.53,-0.31,-0.08,-0.57,1721397177951
-4.71,-5.37,43.03,-0.12,0.39,-0.49,1721397177961
1.13,-5.22,16.89,0.65,-0.56,0.48,1721397177971
-1.19,27.15,4.67,0.35,0.19,0.64,1721397177981
7.78,27.12,-29.07,-0.62,-0.28,0.59,1721397177991
4.55,-4.81,11.8,-0.86,0.26,-0.6,1721397178001
4.15,-42.77,2.52,-0.15,-1.55,-0.78,1721397178011
-7.33,-19.86,43.13,0.14,0.91,-0.85,1721397178021
-5.93,-4.51,22.37,0.98,-1.13,0.22,1721397178031
-12.67,15.19,2.23,0.4,0.36,0.34,1721397178041
6.56,25.4,9.66,0.47,0.23,1.01,1721397178051
11.36,1.04,-9.08,-0.58,-0.23,1.31,1721397178061
17.48,-1.72,8.73,-0.42,0.96,-0.29,1721397178071
10.96,-26.91,0.3,-0.95,-0.77,-1.38,1721397178081
-14.54,0.46,14.9,-0.24,-0.07,-1.3,1721397178091
-8.93,14.24,6.56,0.57,0.06,-0.53,1721397178101
-11.55,-19.57,4.57,-0.86,-0.32,0.44,1721397178111
-7.39,6.68,34.17,0.42,-0.5,0.8,1721397178121
16.26,10.6,11.9,0.99,0.79,0.79,1721397178131
11.39,17.95,-30.84,0.43,-0.54,0.3,1721397178141
14.92,-10.92,2.27,-1.06,1.5,-1.07,1721397178151
-11.06,-32.46,31.21,0.01,-2.1,-1.68,1721397178161
-14.45,8.97,31.27,0.61,0.42,-1.31,1721397178171
-10.63,66.54,-6.78,-0.44,0.14,0.51,1721397178181
3.08,-37.86,4.87,-1.59,0.89,0.9,1721397178191
14.41,-3.89,48.49,0.73,0.76,-0.22,1721397178201
6.85,3.23,-26.85,1.11,-0.64,-1.76,1721397178211
-10.56,22.91,-18.33,-0.17,1.09,-2.32,1721397178221
-22.91,25.86,-2.32,-0.2,-1.27,-1.22,1721397178231
-33.48,8.98,7.81,-0.33,0.44,0.59,1721397178241
5.85,-13.52,24.11,0.09,0.85,1.79,1721397178251
13.95,-29.92,-14.29,-0.11,0.38,0.88,1721397178261
17.0,10.63,19.62,-0.44,1.43,-2.03,1721397178271
4.41,-8.3,49.17,-0.38,-1.24,-3.59,1721397178281
-17.59,25.52,35.49,1.09,-0.17,-1.51,1721397178291
-14.84,30.69,-5.14,0.54,0.24,1.64,1721397178301
3.83,-13.68,-22.94,-0.31,1.14,2.01,1721397178311
22.51,-40.67,-18.08,-0.63,0.31,-0.01,1721397178321
19.23,-1.91,6.44,-0.57,0.28,-1.82,1721397178331
-3.51,12.85,8.62,-0.33,-0.19,-2.64,1721397178341
-20.05,9.24,16.76,-0.42,0.69,-3.08,1721397178351
-27.98,13.78,21.74,-0.21,-0.49,-0.67,1721397178361
-23.75,-18.53,13.42,-0.95,0.69,1.31,1721397178371
5.71,3.54,41.95,0.06,1.36,1.44,1721397178381
8.32,24.53,0.65,0.51,-0.36,0.7,1721397178391
7.0,-14.59,-32.17,-0.63,-0.33,-0.58,1721397178401
6.23,-6.43,10.45,-0.68,0.95,-0.91,1721397178411
-2.63,-21.03,15.55,-0.97,-0.53,-0.91,1721397178421
-9.11,33.28,38.7,0.23,0.59,-0.82,1721397178431
-12.03,3.96,3.86,0.28,-0.51,0.11,1721397178441
-8.59,32.02,0.55,-0.12,0.97,0.79,1721397178451
-8.5,-13.53,-17.14,-0.54,-0.58,0.8,1721397178461
2.33,-14.7,10.54,-0.49,1.1,0.41,1721397178471
5.47,14.07,22.03,1.09,-0.43,0.84,1721397178481
6.75,-13.92,1.05,0.48,0.84,0.35,1721397178491
4.64,16.35,14.82,0.24,0.4,-0.3,1721397178501
-1.04,2.26,8.69,-0.07,-0.17,-0.77,1721397178511
-6.56,-4.19,17.0,-0.64,0.44,-0.51,1721397178521
-9.29,5.5,21.28,0.29,-0.38,0.59,1721397178531
-4.79,-7.31,-8.1,0.42,0.41,1.5,1721397178541
7.31,-9.89,3.8,-0.1,0.46,1.2,1721397178551
10.11,12.98,14.33,0.21,0.26,0.37,1721397178561
10.25,-16.75,10.74,-0.59,0.09,-0.2,1721397178571
-2.76,16.22,32.91,-0.09,-0.31,-0.89,1721397178581
-8.28,10.84,4.4,0.43,-0.4,-0.19,1721397178591
-5.38,3.9,-14.97,-0.09,-0.01,0.59,1721397178601
-4.53,7.91,11.34,-0.13,0.32,1.26,1721397178611
6.48,9.97,4.47,0.35,0.44,0.99,1721397178621
8.84,-26.81,3.72,-0.12,-0.07,0.17,1721397178631
7.68,7.77,37.72,0.07,0.39,-0.72,1721397178641
-2.26,8.88,4.81,0.91,-0.75,-0.05,1721397178651
-1.96,2.58,-7.22,0.3,0.75,0.37,1721397178661
10.68,28.17,12.39,-0.03,0.26,0.2,1721397178676
8.3,22.8,17.88,-0.32,1.1,0.09,1721397178680
7.36,-23.13,12.88,-0.8,-1.01,-0.11,1721397178690
-5.67,-14.38,36.66,-0.31,0.61,-0.9,1721397178700
-17.5,-6.6,-0.27,0.71,-1.23,-0.17,1721397178710
-17.75,3.47,-8.57,-0.3,0.77,1.11,1721397178720
2.05,20.27,12.26,0.04,0.33,1.66,1721397178730
11.49,-25.78,4.09,-0.26,-0.45,1.41,1721397178740
16.07,-20.13,42.94,-0.4,0.36,-0.34,1721397178750
-1.22,-6.99,14.56,0.52,-1.06,-0.89,1721397178760
-9.35,19.95,-15.75,0.21,-0.04,-0.46,1721397178770
-7.72,-1.13,-34.75,0.11,-0.69,1.37,1721397178780
8.08,-27.1,-18.73,-0.98,1.04,2.38,1721397178790
2.41,-61.33,78.45,-1.04,0.72,-1.2,1721397178800
11.73,39.39,78.45,1.43,0.19,-3.23,1721397178810
-18.79,-59.0,-30.57,3.05,-4.37,1.19,1721397178820
-26.22,23.29,-78.45,-1.55,2.55,3.91,1721397178830
14.87,-13.76,-28.07,-0.2,1.01,3.22,1721397178840
7.11,-38.06,25.62,-0.9,2.25,-0.53,1721397178850
6.78,24.72,22.84,0.07,-2.63,-1.55,1721397178860
9.28,-1.84,31.47,0.86,-1.71,-1.46,1721397178870
-15.26,21.28,21.94,0.04,-0.38,0.13,1721397178880
-15.5,5.97,9.44,-0.72,-0.28,1.27,1721397178890
3.75,-20.46,14.27,-0.2,0.44,1.88,1721397178900
10.98,-5.33,-0.34,0.33,0.1,0.94,1721397178910
13.29,-3.3,-5.71,0.18,-0.51,-0.39,1721397178920
-1.36,4.6,4.79,-0.1,-0.07,-0.86,1721397178930
-1.97,-14.01,20.58,0.23,-0.96,-0.46,1721397178940
-6.29,46.01,20.6,0.75,0.03,0.5,1721397178950
4.21,34.5,10.52,0.57,-0.4,1.19,1721397178960
8.89,-54.34,-13.93,-1.43,0.06,0.68,1721397178970
22.27,-20.87,27.89,-0.45,0.51,-1.11,1721397178980
-1.32,3.75,13.06,-0.04,0.31,-1.57,1721397178990
-5.98,-10.3,17.98,0.15,-0.98,-1.05,1721397179000
-26.65,-4.53,6.54,0.75,-0.37,0.22,1721397179010
-4.5,40.45,13.24,0.55,0.3,1.87,1721397179020
7.91,17.04,-1.1,0.04,0.23,2.21,1721397179030
25.63,-16.26,-1.3,-0.24,-0.01,0.57,1721397179040
1.09,-16.34,-3.6,-0.22,-0.3,-1.95,1721397179050
0.59,11.46,-6.09,0.22,-0.76,-2.26,1721397179060
-8.88,-1.07,3.42,-0.75,-0.09,-1.54,1721397179070
-16.57,3.52,32.05,-0.27,-0.06,-0.37,1721397179080
-9.5,-21.1,17.89,-0.03,-0.33,0.63,1721397179090
2.21,-22.07,19.16,-0.17,0.76,0.61,1721397179100
6.21,25.93,9.93,0.55,-0.09,-0.19,1721397179110
2.25,20.31,-19.57,0.58,-0.59,-0.24,1721397179120
5.3,-14.8,-6.62,-0.6,0.7,-0.78,1721397179130
-2.43,-29.33,44.26,-1.32,-0.39,-1.37,1721397179140
-2.83,7.88,55.1,-0.25,-0.56,-1.23,1721397179150
-11.97,1.11,-13.2,0.27,-0.34,-0.17,1721397179160
-2.74,15.8,-8.26,-0.34,0.86,0.8,1721397179170
2.56,-3.63,1.57,0.52,0.27,0.58,1721397179180
11.34,3.42,9.91,-0.02,0.45,-0.7,1721397179190
0.51,0.36,21.65,-0.45,-0.28,-1.77,1721397179200
-8.94,-5.74,16.69,0.08,-0.53,-1.66,1721397179210
-14.88,-12.47,6.48,0.23,0.22,-0.26,1721397179220
-4.39,26.59,10.48,1.09,0.28,0.9,1721397179230
0.94,34.96,-4.78,0.85,0.33,0.92,1721397179240
13.1,-5.06,-3.64,-0.65,0.04,-0.23,1721397179250
-1.72,-61.53,40.31,-1.25,-0.16,-2.13,1721397179260
-2.56,48.55,15.98,0.45,-0.15,-1.66,1721397179270
-16.98,-34.22,1.26,0.58,-1.03,0.08,1721397179280
-4.45,4.71,-6.29,0.97,1.07,1.08,1721397179290
7.94,14.14,1.5,0.43,0.36,1.22,1721397179300
12.14,-6.54,27.01,-0.39,0.12,0.35,1721397179310
13.87,-12.99,26.34,-0.49,0.08,-0.72,1721397179320
-2.76,15.28,-1.5,-0.16,-0.39,-1.29,1721397179330
-11.65,-7.75,-1.6,0.34,0.18,-1.13,1721397179340
-14.73,2.3,1.41,0.55,0.03,0.27,1721397179350
-4.22,11.14,5.02,0.24,0.38,1.29,1721397179360
6.49,-33.3,22.31,-0.83,0.19,0.77,1721397179370
10.37,27.91,27.91,-0.16,0.18,-0.38,1721397179380
2.25,7.07,4.56,0.01,-0.92,-0.22,1721397179390
-2.71,-19.88,-7.65,0.19,0.4,-0.28,1721397179400
-0.87,1.55,13.86,-0.22,0.1,-0.14,1721397179410
-2.65,5.53,8.32,0.19,-0.0,0.51,1721397179420
6.08,-18.01,18.23,-0.11,0.11,0.37,1721397179430
-0.17,3.31,16.04,-0.2,0.21,-0.54,1721397179440
-7.79,0.29,12.64,-0.04,-0.26,-0.66,1721397179450
-7.33,1.25,16.7,-0.25,0.1,-0.28,1721397179460
-1.5,3.68,15.3,0.18,0.06,0.77,1721397179470
4.63,-5.07,-0.32,0.42,0.06,0.89,1721397179480
10.38,9.23,7.15,0.27,0.53,0.05,1721397179490
5.27,7.35,1.09,0.17,0.0,-0.92,1721397179500
-6.39,-16.11,16.23,-0.46,0.14,-1.39,1721397179510
-12.81,26.49,18.2,0.1,-0.42,-0.61,1721397179520
-7.64,-4.06,9.68,0.43,-0.29,1.08,1721397179530
3.89,-13.17,0.08,0.5,0.63,1.52,1721397179540
13.67,-10.24,2.74,0.12,-0.13,0.41,1721397179550
7.31,11.16,12.14,0.3,0.26,-1.18,1721397179560
-6.61,7.76,10.54,-0.05,-0.58,-1.68,1721397179570
-13.61,11.88,24.05,-0.46,-0.39,-0.78,1721397179580
-11.45,9.17,18.13,-0.23,-0.02,0.83,1721397179590
-1.59,-20.22,-7.86,0.31,0.28,1.34,1721397179600
8.8,-17.29,4.44,-0.12,0.01,0.42,1721397179610
7.82,15.88,19.64,0.55,0.11,-0.65,1721397179620
-6.11,6.71,3.81,-0.12,-0.51,-0.91,1721397179630
-5.48,11.98,11.28,-0.03,-0.17,-0.34,1721397179639
-7.21,-6.7,14.09,-0.7,-0.02,0.55,1721397179649
1.34,-2.35,18.02,-0.13,0.11,0.41,1721397179659
5.33,-19.14,7.04,-0.07,-0.03,0.31,1721397179669
5.47,20.46,8.68,0.59,0.21,-0.12,1721397179679
-0.05,0.03,-0.5,0.17,-0.28,-0.53,1721397179689
-5.56,-1.35,11.45,-0.22,0.09,-0.44,1721397179699
-5.77,9.48,14.87,-0.08,0.04,0.28,1721397179709
0.6,-4.58,8.74,0.09,0.23,0.64,1721397179719
4.75,-17.13,9.17,0.18,0.04,0.03,1721397179729
4.02,22.98,1.02,0.77,-0.02,-0.43,1721397179739
-2.34,-13.18,-14.43,-0.18,-0.26,-0.39,1721397179749
-1.5,1.2,22.64,-0.44,0.38,-0.56,1721397179759
-1.77,12.16,24.25,0.15,-0.06,-0.19,1721397179769
-3.2,-2.92,19.26,-0.02,-0.41,0.35,1721397179779
-2.41,-1.76,3.75,0.03,0.23,0.15,1721397179789
4.07,16.2,11.09,0.13,0.33,0.03,1721397179799
-0.45,13.14,6.3,-0.0,-0.18,-0.25,1721397179809
-1.44,-20.27,14.43,-0.34,0.12,-0.44,1721397179819
-4.11,-20.62,11.78,-0.24,-0.19,-0.26,1721397179829
-4.36,10.66,15.67,-0.0,0.18,-0.05,1721397179839
-3.29,2.83,11.35,-0.02,-0.01,0.06,1721397179849
2.91,10.08,6.26,0.39,0.03,0.18,1721397179859
0.08,5.91,6.1,0.31,0.01,0.09,1721397179869
2.83,5.83,4.64,0.07,0.07,-0.06,1721397179879
0.42,-4.35,8.47,0.05,-0.06,-0.18,1721397179889
-2.32,-12.74,8.83,-0.04,-0.01,-0.28,1721397179899
-2.34,4.36,14.9,0.25,0.03,0.02,1721397179909
-3.01,2.66,3.0,0.44,-0.03,0.36,1721397179919
-1.33,0.26,6.61,0.32,-0.02,0.3,1721397179929
2.55,4.81,9.79,0.13,-0.09,0.42,1721397179939
3.51,14.73,4.36,0.3,-0.17,0.29,1721397179949
6.28,-4.47,5.33,-0.13,0.16,-0.16,1721397179959
1.47,-1.36,16.41,-0.11,-0.25,-0.56,1721397179969
-5.77,-1.59,2.54,-0.23,-0.18,-0.32,1721397179979
-4.48,-0.62,16.19,-0.44,0.35,-0.01,1721397179989
-1.87,-7.41,23.78,-0.42,-0.02,0.4,1721397179999
0.19,6.11,19.76,0.09,-0.11,0.27,1721397180009
2.44,-10.49,1.16,0.03,-0.12,0.18,1721397180019
2.65,18.04,11.67,0.39,0.01,-0.12,1721397180029
1.98,13.76,7.44,0.21,-0.09,-0.26,1721397180039
0.02,9.91,10.1,0.1,-0.1,-0.1,1721397180049
-0.06,-11.77,7.32,0.0,0.01,-0.04,1721397180059
1.13,-18.32,13.42,-0.12,0.14,-0.28,1721397180069
-3.17,4.26,7.08,0.31,-0.23,-0.11,1721397180079
-3.95,-13.78,11.37,0.24,0.21,-0.22,1721397180089
1.02,25.7,9.06,0.88,-0.45,0.08,1721397180099
1.65,36.67,0.55,0.58,0.16,0.4,1721397180109
7.16,0.54,2.78,-0.34,0.15,0.02,1721397180119
4.29,-35.39,1.73,-0.99,0.01,-0.52,1721397180129
-2.21,-5.1,23.98,-0.19,0.6,-1.3,1721397180139
-11.49,8.72,-1.31,0.61,-0.69,-0.63,1721397180149
-10.39,7.42,10.52,-0.04,0.55,0.46,1721397180159
4.59,20.77,19.46,-0.09,0.34,1.01,1721397180169
6.88,-39.27,18.16,-1.14,0.07,-0.25,1721397180179
2.68,-9.24,26.84,-0.23,0.11,-1.5,1721397180189
-6.31,-0.11,-1.88,0.26,-0.51,-0.57,1721397180199
-11.31,-8.37,-1.0,0.72,0.07,0.33,1721397180209
2.49,12.54,11.0,0.53,0.52,0.38,1721397180219
4.08,14.78,5.93,0.31,-0.0,0.3,1721397180229
6.96,-9.97,25.87,-0.74,0.65,-0.63,1721397180239
-2.76,10.42,24.95,-0.34,-0.52,-0.93,1721397180249
-7.78,1.43,3.25,0.17,0.3,-0.44,1721397180259
-4.59,-4.37,-6.38,0.76,-0.09,0.41,1721397180269
0.75,-19.04,-16.04,0.08,0.09,0.54,1721397180279
7.85,9.42,21.16,-0.54,0.75,-0.3,1721397180289
9.58,15.55,15.59,-0.39,-0.1,-0.87,1721397180299
-1.61,-3.68,16.36,-0.57,-0.07,-0.93,1721397180309
-12.85,8.75,19.35,-0.22,-0.01,-0.2,1721397180319
-9.56,0.91,11.02,-0.21,0.19,0.42,1721397180329
1.54,7.55,16.47,0.08,0.21,0.66,1721397180339
8.47,1.27,7.69,0.22,0.09,0.25,1721397180349
8.19,-8.8,12.33,-0.16,0.1,-0.4,1721397180359
-0.28,-5.62,7.85,0.12,0.02,-1.22,1721397180369
-8.51,-0.51,10.49,0.18,0.24,-1.12,1721397180379
-12.6,22.83,14.35,0.43,-0.04,-0.08,1721397180389
-6.72,8.66,2.07,0.71,0.02,0.97,1721397180399
4.74,-4.38,4.65,0.21,0.37,1.12,1721397180409
13.76,10.22,5.36,-0.03,0.34,0.51,1721397180419
10.31,5.0,10.63,-0.27,0.22,-0.55,1721397180429
-1.06,5.83,9.08,-0.19,-0.04,-1.11,1721397180439
-8.11,-24.33,16.04,-0.41,0.12,-1.07,1721397180449
-14.78,-4.77,13.09,-0.04,-0.12,0.09,1721397180459
-6.65,-0.66,17.11,0.08,0.51,0.93,1721397180469
4.46,12.08,15.65,0.5,0.17,0.82,1721397180479
8.33,22.35,4.17,0.6,0.05,0.5,1721397180489
8.6,9.08,2.1,0.37,0.13,-0.05,1721397180499
2.16,-22.96,0.66,-0.47,0.18,-0.8,1721397180510
-6.34,-13.53,18.56,-0.31,0.12,-0.84,1721397180520
-9.62,9.65,13.22,0.33,0.18,-0.14,1721397180530
-7.15,4.3,8.94,0.14,0.13,0.59,1721397180540
-2.33,-13.01,9.97,0.2,-0.25,0.65,1721397180550
7.03,13.51,12.54,0.49,0.15,0.42,1721397180560
7.71,28.34,-3.87,0.22,0.21,0.09,1721397180570
7.75,22.71,7.92,-0.43,0.33,-0.49,1721397180580
-6.64,-37.41,8.3,-0.81,-0.51,-0.56,1721397180590
-5.9,-26.05,11.6,-0.03,0.4,-0.33,1721397180600
-6.39,18.92,4.33,-0.03,0.01,0.64,1721397180610
3.11,-11.91,24.57,-0.8,0.57,0.52,1721397180620
2.02,-5.57,44.87,0.44,-0.68,-0.27,1721397180630
-0.68,50.91,-0.42,0.36,0.15,0.48,1721397180640
2.22,18.35,3.86,-0.23,0.3,0.69,1721397180650
5.15,-3.67,17.66,-0.57,0.18,-0.08,1721397180660
1.12,-6.34,4.31,0.17,0.14,-0.05,1721397180670
4.32,-17.1,19.05,-0.29,0.43,-0.55,1721397180685
1.19,10.95,29.75,0.38,1.2,-0.51,1721397180689
3.33,20.95,11.18,0.13,0.1,0.12,1721397180699
-2.88,-14.36,10.54,0.03,0.11,0.12,1721397180709
-3.12,-13.35,13.4,0.2,0.64,0.32,1721397180719
-2.39,-3.67,7.43,0.41,-0.51,0.65,1721397180729
4.37,18.83,4.83,0.64,0.51,0.29,1721397180739
3.74,17.82,-2.49,-0.02,-0.27,0.1,1721397180749
3.95,8.84,3.13,-0.43,0.4,-0.34,1721397180759
-1.98,-47.21,33.66,-1.05,0.09,-1.0,1721397180769
-10.52,26.53,21.54,-0.12,-0.39,-0.46,1721397180779
-7.2,-0.31,3.67,-0.07,0.26,0.36,1721397180789
-2.89,-1.88,-3.77,1.34,-0.41,0.91,1721397180799
7.01,-1.87,-8.71,1.16,0.21,0.89,1721397180809
9.1,28.12,20.99,0.04,0.79,0.22,1721397180819
4.43,6.75,17.43,-0.83,-0.69,-0.58,1721397180829
1.18,-18.55,5.66,-1.21,0.44,-1.42,1721397180839
-3.67,-14.11,28.68,-0.24,-0.23,-0.18,1721397180849
-3.67,-2.39,6.46,0.6,-0.25,0.75,1721397180859
0.34,-0.29,3.35,0.45,0.33,0.47,1721397180869
5.06,13.23,12.25,0.46,0.06,-0.04,1721397180879
1.69,12.27,6.67,-0.31,0.12,-0.07,1721397180889
-1.25,7.84,16.26,-0.28,0.3,-0.23,1721397180899
-1.74,-23.0,10.05,-0.04,-0.09,-0.07,1721397180909
-1.36,8.55,-0.04,0.67,0.14,0.03,1721397180919
2.34,1.53,-3.34,0.62,0.08,0.35,1721397180929
3.22,1.28,5.58,-0.11,0.54,-0.1,1721397180939
2.49,-7.77,45.18,-0.81,-0.03,-1.19,1721397180949
-2.76,22.78,18.18,-0.01,-0.49,-0.36,1721397180959
-6.21,-7.45,-6.24,0.42,0.0,1.24,1721397180969
2.97,0.43,5.17,0.49,0.7,0.95,1721397180979
13.17,28.8,-2.19,0.42,0.27,0.49,1721397180989
4.73,-27.47,-9.96,-0.71,-0.4,-0.47,1721397180999
-7.81,-32.2,8.74,-0.61,0.41,-1.69,1721397181009
-13.74,14.4,30.62,0.01,-0.21,-1.25,1721397181019
-18.92,-20.09,11.34,-0.34,0.32,0.44,1721397181029
-7.91,17.85,18.14,0.49,0.39,1.34,1721397181039
7.42,5.05,2.44,0.15,0.28,1.44,1721397181049
10.64,23.27,13.67,-0.19,0.47,0.4,1721397181059
6.45,-6.32,6.61,-0.54,-0.62,-0.58,1721397181069
-1.17,-8.06,10.33,-0.59,0.28,-1.14,1721397181079
-5.43,-8.2,22.21,-0.08,-0.17,-0.32,1721397181089
-6.76,-3.59,8.09,0.2,-0.16,0.64,1721397181099
1.26,1.19,7.19,0.14,0.4,0.69,1721397181109
6.52,2.78,13.02,-0.1,0.19,0.19,1721397181119
1.67,14.26,13.72,-0.17,0.04,-0.27,1721397181129
-3.56,1.56,9.09,-0.12,-0.05,-0.04,1721397181139
-2.19,2.41,4.14,-0.15,0.13,0.57,1721397181149
1.68,-17.31,11.05,-0.29,0.1,0.35,1721397181159
0.95,-2.26,8.22,0.06,-0.15,0.16,1721397181169
-1.47,-14.99,19.19,-0.56,0.43,-0.4,1721397181179
-1.64,30.81,22.2,0.2,-0.42,0.01,1721397181189
-4.77,1.67,7.45,0.14,-0.32,0.65,1721397181199
3.46,13.72,7.44,0.13,0.59,0.69,1721397181209
4.7,-12.89,7.06,-0.08,-0.14,0.44,1721397181219
3.12,-7.43,7.75,-0.09,0.14,-0.07,1721397181229
1.43,3.5,11.21,0.33,0.02,-0.39,1721397181239
-5.89,-3.43,-7.3,0.68,-0.59,0.0,1721397181249
-4.89,-12.39,9.13,-0.12,0.44,-0.04,1721397181259
0.81,13.61,23.92,0.42,-0.42,0.52,1721397181269
0.55,-24.87,8.2,-0.42,-0.17,0.2,1721397181279
1.15,11.72,25.27,0.2,0.07,-0.31,1721397181289
-4.38,-11.1,1.33,0.16,-0.14,-0.48,1721397181299
-11.0,0.27,8.62,0.19,-0.2,0.34,1721397181309
0.44,4.82,11.93,0.37,0.43,0.81,1721397181319
5.83,14.62,8.29,0.24,-0.01,0.63,1721397181329
3.59,-0.33,-5.79,-0.05,-0.23,0.1,1721397181339
6.4,-11.22,25.21,-0.61,0.58,-0.43,1721397181349
-1.51,-6.08,21.62,0.42,-0.8,-0.23,1721397181359
-6.8,10.24,-5.33,0.57,0.05,0.09,1721397181369
0.94,10.91,2.63,0.55,0.09,0.54,1721397181379
3.67,-4.6,-2.34,-0.06,-0.11,0.54,1721397181389
5.78,-6.11,33.98,-0.76,0.38,-0.3,1721397181399
-0.15,16.37,24.71,0.17,-0.31,-0.69,1721397181409
-5.35,-20.32,6.62,-0.23,-0.19,-0.6,1721397181419
-14.5,-3.44,12.31,0.13,-0.26,0.25,1721397181429
-3.31,-4.04,-3.3,0.36,-0.01,1.08,1721397181439
6.72,-0.9,13.99,0.19,0.34,0.81,1721397181449
12.05,9.02,22.78,0.02,-0.25,0.15,1721397181459
8.58,8.82,11.43,0.0,-0.08,-0.7,1721397181469
-1.63,-2.37,7.03,0.06,-0.13,-1.14,1721397181479
-9.51,-9.39,5.49,-0.0,0.01,-0.56,1721397181489
-11.11,-7.56,7.23,0.17,0.09,0.36,1721397181499
-4.4,-11.42,0.85,0.25,0.06,0.93,1721397181509
5.28,10.99,7.1,0.41,0.17,0.74,1721397181519
9.91,12.17,5.61,0.05,0.04,0.05,1721397181529
4.52,15.26,25.3,-0.35,-0.0,-0.98,1721397181539
-3.11,23.1,14.3,0.08,-0.32,-0.87,1721397181549
-7.53,-26.1,-18.37,-0.43,-0.27,0.06,1721397181559
-5.95,-23.28,20.3,-0.98,0.45,0.2,1721397181569
-1.43,2.66,12.46,0.51,-0.4,-0.12,1721397181579
-1.78,-15.26,-5.43,0.11,0.42,-0.17,1721397181589
-0.12,-7.07,17.76,0.05,-0.29,-0.32,1721397181599
-3.91,10.23,23.73,0.26,-0.12,-0.37,1721397181609
-11.16,24.39,14.36,-0.27,-0.18,0.38,1721397181619
0.77,-11.14,10.11,-0.77,0.39,0.55,1721397181629
4.79,-17.4,9.64,-0.6,-0.02,0.29,1721397181639
4.89,-7.98,10.64,-0.11,0.12,-0.38,1721397181649
0.13,-7.5,1.93,0.33,-0.51,-0.27,1721397181659
-0.67,5.43,13.49,0.21,0.39,-0.36,1721397181669
1.07,18.7,16.79,0.35,-0.18,-0.09,1721397181679
-2.49,11.61,1.62,0.12,-0.03,0.14,1721397181689
1.16,-6.53,12.66,-0.35,0.44,-0.2,1721397181699
0.03,-1.09,8.0,-0.05,-0.28,-0.14,1721397181709
-2.77,-14.34,-5.06,0.14,0.15,-0.15,1721397181719
-1.43,-15.39,8.26,0.19,-0.04,-0.16,1721397181729
-3.44,-7.58,15.36,0.0,-0.15,0.05,1721397181739
0.83,19.49,26.63,0.16,0.43,-0.08,1721397181749
0.04,9.75,23.85,-0.01,-0.68,0.02,1721397181759
-0.78,37.47,-1.15,-0.15,0.19,0.63,1721397181769
4.19,-5.41,-11.64,0.55,0.04,0.89,1721397181779
9.84,-42.39,-17.36,-0.17,0.26,-0.24,1721397181789
0.08,-2.79,21.85,0.63,-0.04,-1.15,1721397181799
-10.52,-14.68,23.64,-0.13,-0.11,-0.86,1721397181809
-7.79,22.61,28.51,-0.22,-0.32,0.0,1721397181819
-8.61,38.59,4.38,0.06,-0.07,0.11,1721397181829
-3.42,-2.93,3.86,-0.93,0.39,0.92,1721397181839
4.01,-16.34,11.72,-0.5,0.21,0.72,1721397181849
5.2,-17.64,6.94,-0.17,0.06,-0.25,1721397181859
1.23,1.34,-4.96,-0.02,-0.22,-0.4,1721397181869
-2.06,-8.92,9.5,-0.23,0.04,-0.03,1721397181879
-0.43,-2.77,21.13,0.12,0.01,-0.06,1721397181889
-3.54,18.39,11.02,0.03,-0.22,-0.13,1721397181899
-3.02,15.91,12.5,-0.27,-0.15,0.32,1721397181909
1.44,5.0,14.3,-0.63,0.2,0.43,1721397181919
2.37,-1.38,0.85,-0.14,-0.11,0.18,1721397181929
1.88,-35.34,-10.38,-0.36,-0.1,-0.22,1721397181939
-1.33,-11.31,16.46,-0.19,0.13,-0.53,1721397181949
-4.07,4.49,7.75,0.49,-0.4,-0.05,1721397181959
-2.84,2.92,19.59,-0.3,-0.06,0.35,1721397181969
11.31,48.23,36.56,-0.42,0.8,0.47,1721397181979
5.01,18.18,3.81,-0.42,-0.72,0.64,1721397181989
4.24,-54.65,-30.72,-0.6,0.54,0.05,1721397181999
14.32,-42.43,22.79,-0.58,1.17,-0.36,1721397182009
-5.03,-17.72,52.73,-1.36,0.64,-0.94,1721397182019
-16.01,-4.16,38.1,0.26,-1.26,-1.2,1721397182029
-18.46,5.32,-19.92,0.89,-0.61,1.18,1721397182039
2.41,14.74,21.77,-0.69,1.33,2.19,1721397182049
16.09,63.06,36.52,0.26,0.62,1.78,1721397182059
12.5,-36.83,1.5,0.37,-1.01,0.3,1721397182069
21.17,5.06,-2.58,-1.09,0.55,-1.65,1721397182079
6.13,33.39,-4.71,-0.02,-0.68,-2.23,1721397182089
-7.31,-12.49,14.63,0.86,0.05,-1.53,1721397182099
-18.34,-14.45,11.15,-0.42,-0.3,-0.3,1721397182109
-8.07,42.05,24.05,0.35,0.22,1.04,1721397182119
-1.09,-19.39,22.74,0.63,-0.26,1.19,1721397182129
10.05,14.84,-1.91,-0.31,0.22,0.18,1721397182139
6.57,30.83,5.14,0.27,0.55,-0.27,1721397182149
4.01,-52.48,-6.61,0.81,-1.14,-0.5,1721397182159
-0.53,-16.18,6.66,-0.27,0.52,-0.87,1721397182169
4.26,8.57,45.71,-0.27,-0.12,-0.25,1721397182179
-2.99,20.37,31.23,0.2,-0.24,0.15,1721397182189
-4.29,-7.44,2.21,0.54,-0.63,-0.67,1721397182199
-3.74,47.42,3.17,0.62,0.38,0.2,1721397182209
1.98,43.87,-3.19,1.51,0.19,0.78,1721397182219
4.75,-40.47,-29.08,0.67,-0.51,0.07,1721397182229
4.79,-24.31,31.58,-0.89,1.76,-0.97,1721397182239
0.91,-11.42,25.88,0.53,-0.9,-0.37,1721397182249
-2.23,-6.01,-9.65,0.47,0.28,-0.06,1721397182259
-2.87,-2.13,9.19,0.48,0.34,-0.37,1721397182269
-3.98,30.44,7.75,0.8,0.09,-0.3,1721397182279
-3.96,20.9,-15.66,0.48,-0.18,0.24,1721397182289
2.22,-22.04,10.09,-1.09,0.79,-0.19,1721397182299
-3.94,-9.92,50.15,-0.37,-0.17,-0.65,1721397182309
-7.25,-4.23,11.52,0.48,-0.26,-0.25,1721397182319
-1.21,1.16,-7.47,0.04,0.06,0.77,1721397182329
5.15,11.51,9.07,0.12,0.39,0.44,1721397182339
6.84,3.58,2.87,0.06,0.34,0.01,1721397182349
7.24,-15.82,17.77,-0.68,0.15,-0.94,1721397182359
-7.13,-6.35,20.62,-0.25,-0.19,-1.53,1721397182369
-10.95,22.56,9.42,0.35,0.15,-0.88,1721397182379
-11.81,6.33,-10.77,0.51,-0.18,0.56,1721397182389
-2.33,-4.9,-0.29,-0.05,0.7,1.04,1721397182399
8.25,12.85,9.03,-0.11,0.01,0.74,1721397182409
8.55,-40.09,18.16,-1.03,-0.22,-0.39,1721397182419
5.23,9.54,36.7,0.06,0.29,-1.21,1721397182429
-9.61,5.88,8.81,0.03,-0.32,-0.94,1721397182439
-11.66,11.95,8.24,0.03,0.13,0.13,1721397182449
-3.81,10.88,-0.94,0.57,0.21,0.9,1721397182459
5.24,-1.72,-2.63,0.08,0.34,0.89,1721397182469
11.41,-1.28,22.7,-0.52,0.36,-0.21,1721397182479
0.12,-6.43,14.96,-0.09,-0.4,-0.94,1721397182489
-5.13,-8.88,5.43,0.02,-0.0,-0.97,1721397182499
-13.2,-5.38,11.13,0.35,-0.3,-0.04,1721397182509
-6.48,9.08,11.6,0.54,0.29,0.75,1721397182519
3.11,24.96,17.48,0.46,0.03,1.02,1721397182529
10.07,35.73,18.59,-0.41,0.45,0.94,1721397182539
12.06,11.67,10.95,-0.51,0.18,-0.05,1721397182549
7.52,-59.85,-7.88,-0.21,-0.36,-1.29,1721397182559
-4.12,13.17,14.49,0.45,0.27,-1.52,1721397182569
-14.92,-2.35,-10.2,0.54,0.07,-0.35,1721397182579
-10.48,-14.38,16.38,0.25,0.33,0.12,1721397182589
-7.88,23.18,11.37,0.93,-0.27,0.81,1721397182599
4.49,26.62,1.24,-0.22,0.49,0.94,1721397182609
12.83,-0.75,20.08,-1.0,0.19,-0.05,1721397182619
-0.35,-13.61,14.21,-0.26,-0.56,-0.7,1721397182629
-0.6,0.08,2.38,0.28,0.44,-0.32,1721397182639
-3.38,-11.65,-2.79,0.04,-0.22,0.36,1721397182649
-1.2,4.08,10.3,-0.13,0.25,0.14,1721397182659
1.06,20.0,21.26,-0.02,-0.03,-0.39,1721397182669
-6.09,6.42,-3.64,-0.1,-0.54,0.02,1721397182679
-3.41,-12.5,26.96,-0.45,0.41,0.24,1721397182694
-2.24,-10.31,25.23,-0.01,-0.23,0.25,1721397182698
0.31,12.25,5.04,0.28,0.2,0.08,1721397182708
0.26,7.99,-6.36,0.26,-0.53,0.45,1721397182718
4.13,2.21,0.68,-0.21,0.23,0.37,1721397182728
5.96,1.06,2.85,-0.21,-0.15,0.21,1721397182738
5.9,-30.85,27.02,-1.63,0.2,-0.78,1721397182748
-1.87,-6.02,57.49,-0.38,-0.26,-0.81,1721397182758
-11.88,4.92,5.37,0.45,-0.51,-0.77,1721397182768
-15.3,21.99,-11.35,-0.01,0.29,0.7,1721397182778
-0.83,-0.12,4.35,-0.06,0.59,2.07,1721397182788
14.09,-3.71,2.04,0.22,0.24,1.56,1721397182798
17.77,-16.32,7.71,-0.65,0.1,-0.42,1721397182808
5.71,25.04,20.29,0.08,-0.57,-1.56,1721397182818
-10.93,-0.79,11.11,-0.16,-0.45,-1.05,1721397182828
-15.8,5.39,24.16,-0.58,-0.23,-0.04,1721397182838
-10.72,1.2,16.37,-0.14,-0.03,0.71,1721397182848
-0.68,-34.84,-2.65,-0.23,-0.16,0.94,1721397182858
5.68,-4.07,28.58,-0.08,0.39,0.09,1721397182868
10.52,11.06,17.39,0.32,-0.33,-0.0,1721397182878
4.98,15.09,5.92,0.2,0.14,-0.45,1721397182888
0.2,33.74,5.31,0.08,0.27,-0.36,1721397182898
-2.74,-6.51,1.19,-0.51,0.04,-0.05,1721397182908
-4.04,-28.91,12.73,-0.47,-0.06,0.04,1721397182918
-3.19,-6.6,15.45,0.62,-0.46,0.47,1721397182928
4.15,-3.79,-0.89,0.63,0.06,0.31,1721397182938
1.83,15.37,9.02,0.53,-0.22,-0.24,1721397182948
0.39,22.6,14.53,0.11,0.08,-0.69,1721397182958
-6.31,-6.11,6.95,-0.43,-0.5,-0.1,1721397182968
-5.43,-16.38,15.96,-0.51,0.17,0.31,1721397182978
0.84,-8.01,15.71,0.4,-0.28,0.79,1721397182988
5.78,2.99,3.79,0.34,0.28,0.35,1721397182998
5.26,17.72,12.1,0.25,-0.18,-0.31,1721397183008
-0.71,23.02,-1.3,0.2,-0.29,-0.29,1721397183018
0.46,-7.59,5.97,-0.61,0.19,-0.17,1721397183028
-3.54,-10.04,21.61,-0.43,-0.36,0.11,1721397183038
-0.58,-24.04,27.72,-0.42,0.16,-0.05,1721397183048
-0.59,6.27,9.17,0.61,-0.5,0.39,1721397183058
2.18,-3.63,-5.29,0.19,-0.11,0.2,1721397183068
0.04,20.0,9.5,0.45,-0.06,0.02,1721397183078
2.85,17.84,-2.23,0.19,0.05,0.13,1721397183088
2.58,-23.16,8.43,-0.66,0.06,-0.08,1721397183098
-3.9,-19.85,32.65,-0.54,-0.08,-0.26,1721397183108
-6.75,1.17,12.55,0.05,-0.27,-0.34,1721397183118
-5.66,-0.71,3.14,0.37,-0.27,0.3,1721397183128
2.25,-1.12,16.8,0.4,-0.01,0.57,1721397183138
7.87,34.51,4.19,0.78,-0.01,0.33,1721397183148
8.71,0.82,-1.44,-0.02,-0.13,0.02,1721397183158
4.62,-7.46,20.14,-0.87,0.4,-0.89,1721397183168
-5.56,-6.06,14.74,-0.14,-0.34,-1.05,1721397183178
-11.9,-15.66,2.39,-0.09,-0.04,-0.56,1721397183188
-12.85,0.12,9.75,0.76,-0.4,0.33,1721397183198
1.07,6.31,0.48,0.62,-0.01,0.91,1721397183208
9.36,31.98,5.42,0.63,0.02,0.88,1721397183218
15.34,-12.17,3.85,-0.52,-0.03,-0.06,1721397183228
5.91,-13.23,26.4,-0.92,0.09,-1.44,1721397183238
-5.24,-10.53,21.54,-0.21,-0.46,-1.95,1721397183248
-17.71,4.32,5.28,0.08,-0.49,-0.91,1721397183258
-14.82,-0.19,4.54,0.07,0.01,0.72,1721397183268
2.4,10.46,10.13,0.53,0.3,1.54,1721397183278
13.85,-23.67,-6.74,-0.16,0.03,1.0,1721397183288
18.88,-0.51,20.19,-0.35,0.9,-1.28,1721397183298
5.0,-0.74,6.12,0.11,-1.34,-2.13,1721397183308
-12.68,5.32,22.45,-0.12,0.33,-1.83,1721397183318
-12.51,17.76,23.92,0.34,-0.06,0.31,1721397183328
-9.22,0.04,1.46,-0.06,0.47,1.5,1721397183338
10.45,-12.95,18.93,-0.43,0.82,0.62,1721397183348
9.68,-8.69,4.61,0.06,-0.49,-0.67,1721397183358
4.17,-15.4,0.55,0.14,0.14,-1.34,1721397183368
-4.88,1.83,14.99,0.35,-0.35,-1.11,1721397183378
-5.77,24.05,14.29,0.52,0.42,-0.44,1721397183388
-4.0,8.36,11.21,0.39,-0.18,0.08,1721397183398
-2.02,3.74,3.48,-0.36,0.19,-0.08,1721397183408
0.4,-28.98,6.73,-0.39,0.04,-0.4,1721397183418
4.01,-9.8,14.01,-0.01,0.35,-0.43,1721397183428
0.6,-4.97,4.92,0.54,-0.16,-0.38,1721397183438
-3.85,-5.56,12.72,0.07,0.34,-0.45,1721397183448
-2.71,23.86,23.15,0.36,-0.08,-0.32,1721397183458
-2.34,18.25,3.8,-0.08,0.05,-0.3,1721397183468
2.88,-2.65,15.86,-0.74,0.49,-0.19,1721397183478
1.86,-10.81,18.46,-0.31,-0.11,-0.38,1721397183488
-2.93,-7.98,-3.44,0.13,0.2,-0.65,1721397183498
-5.05,-10.5,12.77,0.04,0.29,-0.69,1721397183508
-6.63,20.94,5.98,0.62,-0.11,-0.12,1721397183518
-4.16,-11.08,6.38,0.01,0.17,-0.04,1721397183528
2.1,3.66,14.82,0.17,0.11,0.11,1721397183538
5.14,2.57,10.93,-0.03,0.51,-0.09,1721397183548
2.21,-0.71,17.52,-0.25,0.09,-0.7,1721397183558
-4.21,-0.93,6.39,0.21,-0.17,-0.64,1721397183568
-6.18,-6.79,5.02,0.19,0.31,-0.3,1721397183578
-5.05,5.56,9.34,0.35,0.07,0.16,1721397183588
-0.3,11.02,11.12,0.18,0.22,0.27,1721397183598
2.74,1.96,9.84,0.02,-0.1,0.06,1721397183608
1.44,1.55,9.54,-0.19,0.13,-0.26,1721397183618
-1.58,-8.37,10.12,-0.24,0.02,-0.54,1721397183628
-6.39,-0.22,8.45,-0.02,-0.08,-0.28,1721397183638
-4.07,14.82,9.41,0.44,0.19,0.27,1721397183648
-0.08,-7.85,3.76,0.08,-0.03,0.35,1721397183658
3.35,2.84,13.92,-0.05,0.15,0.14,1721397183668
3.83,0.02,13.79,-0.28,0.17,-0.06,1721397183678
0.07,-5.93,5.28,-0.23,-0.15,-0.39,1721397183688
-3.88,-1.57,16.04,-0.21,0.19,-0.46,1721397183698
-4.58,4.65,13.45,0.21,-0.09,-0.01,1721397183708
-4.46,16.89,9.29,0.11,0.09,0.32,1721397183718
0.41,11.15,0.76,-0.07,-0.0,0.52,1721397183728
2.73,-23.48,7.13,-0.81,0.2,0.27,1721397183738
-1.73,-8.41,15.39,-0.44,0.1,-0.52,1721397183748
-6.35,-7.54,14.3,-0.41,-0.18,-0.54,1721397183758
-7.02,8.71,21.15,0.28,-0.08,0.41,1721397183768
1.24,-4.21,5.22,0.49,-0.29,1.32,1721397183778
10.01,20.01,3.67,0.28,0.27,0.92,1721397183788
12.22,4.3,2.3,-0.51,-0.05,-0.12,1721397183798
4.47,-7.4,11.49,-0.67,0.01,-1.11,1721397183808
-6.88,-17.65,15.4,-0.51,-0.33,-1.35,1721397183818
-16.73,7.84,15.14,0.02,-0.26,-0.31,1721397183828
-10.7,4.12,10.67,0.08,0.22,1.25,1721397183838
4.4,20.75,15.85,0.0,0.31,1.77,1721397183848
13.44,16.12,11.43,-0.26,0.08,0.88,1721397183858
11.53,-21.18,1.03,-0.47,-0.33,-0.26,1721397183868
6.86,-24.82,14.34,-0.96,-0.02,-1.27,1721397183878
-5.13,11.09,18.77,-0.2,-0.41,-1.41,1721397183888
-10.81,-11.21,6.11,0.33,0.0,-0.46,1721397183898
-11.67,12.79,8.78,0.46,-0.01,0.69,1721397183908
3.03,32.36,13.21,0.28,0.54,1.56,1721397183918
9.22,-6.38,14.16,-0.33,-0.19,1.12,1721397183928
9.88,-29.48,15.08,-0.84,-0.01,-0.67,1721397183938
3.66,11.59,16.54,-0.15,-0.54,-1.09,1721397183948
-1.83,-20.65,9.0,0.52,-0.21,-0.73,1721397183958
-10.82,13.79,2.66,0.85,-0.3,-0.11,1721397183968
-2.15,7.5,12.65,0.7,0.55,0.5,1721397183978
1.7,12.54,9.92,0.25,-0.15,0.52,1721397183988
3.93,-20.53,5.7,-0.03,0.18,-0.15,1721397183998
0.72,-7.63,18.61,-0.12,-0.03,-0.88,1721397184008
-4.72,9.8,9.4,0.4,-0.42,-0.54,1721397184018
-4.93,0.59,3.34,0.26,0.18,0.21,1721397184028
3.55,4.51,5.42,0.52,-0.05,0.33,1721397184038
4.8,1.16,2.76,0.02,0.04,-0.1,1721397184048
5.23,3.01,16.98,-0.2,0.4,-0.6,1721397184058
-1.05,-15.31,19.69,-0.45,-0.17,-0.94,1721397184068
-10.46,-0.56,17.29,0.07,-0.16,-0.55,1721397184078
-4.77,4.44,6.79,0.22,0.24,0.32,1721397184088
0.69,8.76,10.04,0.28,0.14,0.51,1721397184098
6.24,8.65,-5.29,0.48,0.18,0.18,1721397184108
8.97,-10.54,0.41,-0.42,0.33,-0.55,1721397184118
-1.63,0.42,15.16,-0.21,-0.17,-1.03,1721397184128
-5.49,-26.3,20.54,-0.76,0.61,-1.1,1721397184138
-12.89,23.88,23.26,-0.19,-0.65,-0.06,1721397184148
-6.13,10.91,-0.57,0.05,0.69,0.5,1721397184158
4.74,-7.96,10.02,0.02,0.06,0.42,1721397184168
6.73,7.97,6.78,0.24,0.18,-0.29,1721397184178
6.46,-1.63,4.76,0.13,0.25,-0.9,1721397184188
-5.71,-14.08,16.65,-0.21,-0.06,-1.33,1721397184198
-8.39,11.6,18.21,0.36,-0.07,-0.58,1721397184208
-7.92,-2.66,4.97,0.14,0.16,0.39,1721397184218
3.87,16.21,12.68,0.43,0.41,0.58,1721397184228
7.58,-3.34,5.02,0.04,0.25,0.07,1721397184238
9.78,1.16,6.14,-0.12,0.29,-0.88,1721397184248
-1.49,-15.25,4.93,-0.18,0.0,-1.37,1721397184258
-11.46,-4.18,18.49,-0.02,0.06,-1.0,1721397184268
-10.47,-2.49,12.04,0.46,0.03,0.27,1721397184278
-2.63,12.01,12.58,0.59,0.44,0.88,1721397184288
9.12,25.99,1.37,0.66,0.37,0.65,1721397184298
8.95,1.35,-3.39,-0.39,0.19,-0.22,1721397184308
6.05,-9.52,20.45,-0.89,0.49,-1.12,1721397184318
-2.85,-24.78,27.99,-0.69,0.09,-1.19,1721397184328
-13.72,3.76,8.68,-0.03,-0.14,-0.51,1721397184338
-10.49,-7.12,3.53,0.2,0.35,0.33,1721397184348
-1.94,20.2,14.18,0.49,0.28,0.75,1721397184358
3.79,23.59,3.83,0.48,0.41,0.55,1721397184368
6.83,-9.38,5.4,-0.34,0.14,-0.04,1721397184378
4.72,-19.57,17.48,-0.46,0.17,-0.78,1721397184388
-3.05,-2.89,14.02,-0.01,-0.04,-0.63,1721397184398
-6.86,7.73,6.7,0.28,0.1,-0.24,1721397184408
-6.19,17.82,8.34,0.35,0.14,0.2,1721397184418
0.23,6.71,0.51,0.13,0.14,0.49,1721397184428
1.24,-31.96,7.59,-0.71,0.26,0.22,1721397184438
2.12,1.72,21.39,-0.12,0.3,-0.21,1721397184448
0.31,-10.5,11.2,-0.13,0.07,-0.43,1721397184458
-9.27,16.04,13.41,0.25,-0.23,-0.31,1721397184468
-5.3,27.04,5.05,0.22,0.23,0.25,1721397184478
2.09,7.78,4.32,-0.25,0.21,0.59,1721397184488
2.22,-37.03,8.27,-0.65,0.12,0.2,1721397184498
6.0,-2.67,15.4,0.07,0.3,-0.35,1721397184508
0.03,-5.06,3.26,0.34,-0.27,-0.42,1721397184518
-6.97,12.52,8.03,0.42,0.03,-0.19,1721397184528
-5.1,10.81,15.71,-0.19,0.36,0.02,1721397184538
0.06,14.57,15.36,-0.05,-0.04,0.16,1721397184548
-1.18,-12.63,7.84,-0.56,0.21,-0.0,1721397184558
0.31,-2.8,18.56,0.08,0.27,-0.33,1721397184568
-1.51,-18.4,2.73,0.27,-0.47,0.29,1721397184578
-0.79,-2.79,15.9,0.29,0.32,0.52,1721397184588
9.27,30.84,7.44,0.61,0.05,0.53,1721397184598
4.93,6.99,-0.2,0.07,-0.32,-0.05,1721397184608
1.24,-0.6,8.8,-0.13,0.39,-0.76,1721397184618
-4.89,-22.7,8.95,-0.44,-0.13,-0.8,1721397184628
-12.12,-10.5,23.18,-0.28,0.18,-0.25,1721397184638
-4.84,7.85,14.45,0.43,0.0,0.69,1721397184648
-1.84,11.56,6.33,0.51,0.08,0.96,1721397184658
7.15,10.45,0.51,0.57,0.09,0.64,1721397184668
10.14,-2.06,3.45,-0.27,0.15,-0.1,1721397184678
3.07,-12.93,13.22,-0.63,-0.15,-1.12,1721397184688
-12.64,1.44,18.51,-0.19,-0.12,-0.62,1721397184703
-14.63,1.26,12.97,0.06,-0.4,-0.15,1721397184707
-8.92,-9.26,4.31,0.25,0.3,1.01,1721397184717
3.16,18.0,11.42,0.78,0.14,1.24,1721397184727
9.07,11.22,-2.53,0.36,0.2,0.61,1721397184737
10.61,0.39,13.36,-0.67,0.08,-0.62,1721397184747
-2.03,0.34,19.62,-0.52,-0.54,-1.27,1721397184757
-12.53,-20.2,-1.68,-0.45,-0.23,-0.64,1721397184767
-13.25,-0.33,20.95,-0.09,0.22,0.45,1721397184777
-6.07,-1.24,7.67,0.63,-0.13,1.28,1721397184787
3.1,16.14,2.29,0.46,0.34,1.18,1721397184797
11.36,11.34,1.73,0.22,-0.16,0.47,1721397184807
9.74,-2.15,6.67,-0.92,0.09,-0.47,1721397184817
0.07,-15.62,26.02,-0.96,-0.27,-1.08,1721397184827
-10.53,-5.01,11.64,-0.19,-0.4,-0.57,1721397184837
-12.56,-10.49,4.55,-0.02,0.03,0.63,1721397184847
-3.53,1.84,18.78,0.51,0.16,1.21,1721397184857
7.7,20.3,8.4,0.71,-0.03,1.25,1721397184867
11.26,6.79,13.52,-0.29,-0.09,0.31,1721397184877
9.05,2.74,15.68,-0.66,-0.02,-0.68,1721397184887
0.1,-19.01,10.99,-0.86,-0.53,-0.97,1721397184897
-10.04,-2.41,14.45,-0.12,-0.24,-0.38,1721397184907
-8.3,1.02,10.09,0.65,0.15,0.47,1721397184917
-1.53,12.5,5.74,0.73,0.12,1.07,1721397184927
3.9,0.45,3.99,0.35,0.06,0.81,1721397184937
9.32,-9.17,4.25,-0.18,-0.08,-0.18,1721397184947
2.25,-5.28,11.38,-0.08,-0.39,-0.67,1721397184957
-1.17,3.81,19.86,-0.07,-0.04,-0.71,1721397184967
-6.52,7.97,14.5,0.27,-0.2,-0.19,1721397184977
-4.05,-6.07,2.66,0.22,-0.02,0.25,1721397184987
-2.06,10.84,9.59,0.11,0.06,0.5,1721397184997
3.76,-4.2,6.57,-0.01,0.17,0.28,1721397185007
2.19,-6.53,9.52,0.05,-0.28,-0.14,1721397185017
2.34,6.0,9.89,0.11,0.04,-0.33,1721397185027
-0.69,-0.21,14.69,-0.16,-0.09,-0.09,1721397185037
-3.23,-11.06,12.58,-0.07,-0.17,-0.05,1721397185047
-2.38,1.34,11.9,0.1,0.09,-0.17,1721397185057
-1.18,9.87,-0.07,0.54,-0.18,0.29,1721397185067
2.61,2.37,2.85,0.26,0.24,0.24,1721397185077
4.67,1.61,6.81,-0.09,-0.07,-0.08,1721397185087
1.08,-17.91,13.45,-0.92,0.11,-0.51,1721397185097
-5.77,-6.65,23.83,-0.43,-0.3,-0.61,1721397185107
-6.43,4.18,9.13,-0.19,-0.05,0.27,1721397185117
1.42,7.77,9.94,0.35,0.24,0.71,1721397185127
6.96,-13.7,8.31,0.01,0.03,0.26,1721397185137
5.14,18.31,16.27,-0.22,0.16,-0.54,1721397185147
0.14,-3.39,8.81,-0.44,-0.15,-0.8,1721397185157
-6.88,-8.53,5.38,-0.23,-0.05,-0.49,1721397185167
-5.2,-7.16,10.96,0.0,0.22,0.02,1721397185177
-0.48,15.25,10.59,0.27,-0.11,0.66,1721397185187
7.03,6.3,10.81,-0.07,0.65,0.39,1721397185197
4.64,-10.24,11.0,-0.09,-0.41,-0.12,1721397185207
-0.86,3.64,8.0,0.02,0.24,-0.83,1721397185217
-4.62,-10.5,8.08,0.22,-0.14,-0.78,1721397185227
-12.44,4.62,17.37,0.35,-0.21,-0.37,1721397185237
-2.23,33.98,17.02,0.82,0.04,0.71,1721397185247
2.76,-6.63,9.04,0.18,0.16,1.5,1721397185257
15.6,-14.92,9.44,-0.54,0.56,0.56,1721397185267
9.07,-9.22,7.48,-0.25,-0.28,-0.85,1721397185277
2.82,3.52,1.92,0.21,-0.21,-1.44,1721397185287
-7.24,1.42,8.17,0.4,-0.25,-0.95,1721397185297
-11.96,-1.83,16.22,0.07,0.15,-0.13,1721397185307
-4.3,4.08,18.33,0.01,0.13,0.5,1721397185317
0.54,-9.01,6.63,-0.53,0.3,0.32,1721397185327
3.1,2.26,22.05,-0.33,0.14,-0.22,1721397185337
2.25,0.4,3.34,0.43,-0.23,-0.14,1721397185347
0.16,5.61,2.22,0.2,0.37,-0.26,1721397185357
1.33,10.6,23.62,-0.18,-0.01,-0.14,1721397185367
-2.08,19.28,17.14,-0.42,0.16,-0.02,1721397185377
0.27,-27.46,9.69,-0.12,-0.04,-0.07,1721397185387
1.18,-10.81,3.29,0.18,0.12,-0.09,1721397185397
2.12,-2.94,12.66,0.35,0.12,-0.32,1721397185407
-2.98,-1.19,4.77,0.48,-0.04,-0.48,1721397185417
-4.98,10.32,12.52,0.47,0.28,-0.47,1721397185427
-0.98,26.15,4.5,0.85,-0.12,0.12,1721397185437
0.05,1.13,-5.82,0.27,0.11,0.57,1721397185447
9.0,0.23,2.72,-0.03,0.46,0.22,1721397185457
6.71,-25.26,3.53,-0.3,-0.11,-0.65,1721397185467
-2.64,-14.19,21.16,-0.26,0.21,-1.21,1721397185477
-8.46,9.35,16.93,0.18,-0.09,-0.87,1721397185487
-16.55,11.69,11.18,-0.23,0.22,-0.13,1721397185497
-4.71,31.03,16.58,0.05,0.14,0.83,1721397185507
1.34,2.61,0.12,-0.37,0.26,0.84,1721397185517
10.85,-24.24,11.5,-0.73,0.36,-0.12,1721397185527
4.65,-4.75,16.57,-0.11,-0.08,-0.96,1721397185537
-5.45,-1.8,2.22,0.03,-0.13,-0.82,1721397185547
-9.49,4.75,11.61,0.33,0.09,-0.43,1721397185557
-7.45,3.68,8.9,0.13,-0.21,0.4,1721397185567
-0.17,10.8,12.77,-0.19,0.48,0.55,1721397185577
4.7,-5.82,16.08,-0.44,0.25,0.16,1721397185587
5.33,-4.08,25.35,-0.58,0.05,-0.55,1721397185597
-0.89,9.12,14.63,0.24,-0.18,-0.49,1721397185607
-4.14,-6.27,2.11,0.45,-0.14,-0.07,1721397185617
-2.92,6.0,5.88,0.26,0.38,-0.0,1721397185627
-0.14,1.52,7.23,0.09,0.01,0.05,1721397185637
-2.25,-1.56,2.28,0.22,0.1,-0.02,1721397185647
0.0,-22.65,7.41,0.09,0.0,-0.13,1721397185657
-2.58,10.8,19.51,0.26,0.11,-0.15,1721397185667
-0.21,5.55,6.28,0.24,-0.15,0.13,1721397185677
-6.08,9.04,8.83,0.11,-0.17,0.28,1721397185687
5.92,8.77,3.68,0.17,0.44,0.21,1721397185697
3.48,1.57,6.03,-0.26,-0.18,0.02,1721397185707
0.34,-6.76,8.51,-0.31,-0.08,-0.47,1721397185717
-1.75,-13.57,18.98,-0.37,0.24,-0.39,1721397185727
-6.37,4.43,12.29,0.0,-0.34,0.06,1721397185737
-4.59,11.85,8.03,0.23,0.26,0.23,1721397185747
3.11,21.08,7.19,0.17,0.19,0.55,1721397185757
5.24,2.23,7.5,-0.23,0.04,0.27,1721397185767
3.84,-19.29,8.23,-0.76,0.12,-0.42,1721397185777
-1.59,-15.66,14.45,-0.59,-0.09,-0.69,1721397185787
-5.16,10.28,12.61,0.2,-0.06,-0.09,1721397185797
-2.64,-4.12,3.79,0.54,0.07,0.44,1721397185807
-1.48,6.98,13.66,0.38,0.11,0.41,1721397185817
6.82,23.52,15.42,0.01,0.15,0.14,1721397185827
3.33,-2.21,9.61,-0.44,-0.51,-0.06,1721397185837
1.15,-3.45,12.52,-0.39,0.2,-0.44,1721397185847
0.9,-0.47,14.72,0.13,-0.16,-0.22,1721397185857
-5.3,6.93,8.6,0.4,0.25,-0.16,1721397185867
-2.82,21.15,8.83,0.45,0.34,-0.08,1721397185877
-2.46,-8.49,11.87,-0.16,-0.03,0.28,1721397185887
-1.11,-18.42,8.03,-0.24,0.23,0.3,1721397185897
2.64,-9.81,10.89,0.16,0.05,0.42,1721397185907
4.2,13.8,8.62,0.52,0.06,0.32,1721397185917
8.31,-2.95,6.28,0.36,-0.05,0.03,1721397185927
0.97,-6.82,3.75,0.26,-0.06,-0.43,1721397185937
0.32,2.43,13.68,-0.03,0.37,-0.67,1721397185947
-7.46,16.79,4.02,-0.04,-0.25,-0.21,1721397185957
-6.65,-13.0,6.54,-0.45,0.25,0.2,1721397185967
-1.64,-13.02,22.17,-0.22,0.05,0.52,1721397185977
1.25,4.31,3.76,0.07,-0.07,0.76,1721397185987
7.63,-5.36,13.43,-0.28,0.68,0.04,1721397185997
3.49,15.19,9.4,0.21,-0.4,-0.4,1721397186007
-2.27,12.03,0.3,0.07,0.36,-0.4,1721397186017
-3.7,-12.39,7.98,-0.15,-0.11,0.12,1721397186027
-3.73,-14.83,8.97,-0.23,0.12,0.22,1721397186037
0.61,-1.54,17.47,-0.01,0.23,0.18,1721397186047
0.18,8.74,7.34,-0.18,-0.19,0.33,1721397186057
0.97,19.69,11.61,-0.23,0.5,0.15,1721397186066
3.72,-6.75,2.48,-0.3,-0.2,0.05,1721397186076
-1.48,-12.27,9.73,-0.89,0.43,-0.62,1721397186086
-5.48,-19.17,25.96,-0.7,-0.17,-0.66,1721397186096
-9.68,3.94,13.76,-0.15,-0.18,0.24,1721397186106
-3.37,-10.23,17.98,0.3,0.39,0.78,1721397186116
4.86,27.05,8.3,0.4,-0.13,1.21,1721397186126
11.09,28.75,13.27,-0.06,0.93,0.75,1721397186136
12.37,12.46,2.44,-0.1,-0.31,-0.18,1721397186146
0.08,-37.37,0.51,-0.3,0.16,-1.31,1721397186156
-6.1,-6.33,22.83,-0.17,-0.32,-1.38,1721397186166
-12.61,8.66,7.22,0.6,-0.17,-0.23,1721397186176
-3.57,-9.44,5.69,0.46,0.55,1.06,1721397186186
3.56,11.76,20.34,0.28,0.31,1.23,1721397186196
12.18,20.06,11.71,-0.15,0.56,0.43,1721397186206
7.94,-13.05,3.41,-0.08,-0.2,-0.59,1721397186216
0.46,-8.73,12.68,-0.31,0.29,-1.53,1721397186226
-8.46,20.71,14.7,0.3,-0.48,-0.89,1721397186236
-15.9,-2.21,5.51,0.24,0.62,0.41,1721397186246
-1.02,0.96,10.37,0.43,0.2,0.87,1721397186256
4.3,0.31,-3.56,0.4,0.24,0.56,1721397186266
11.26,0.6,13.58,-0.14,0.51,-0.26,1721397186276
1.05,0.08,14.3,0.29,-0.4,-0.91,1721397186286
-6.4,-8.33,7.01,0.12,0.22,-1.02,1721397186296
-7.05,-0.07,21.16,-0.13,0.26,-0.26,1721397186306
-7.99,7.08,11.38,0.27,-0.0,0.63,1721397186316
1.83,-2.44,6.12,0.2,0.57,0.65,1721397186326
6.39,9.83,-0.23,0.66,-0.0,0.32,1721397186336
7.14,-4.55,-12.77,-0.11,0.29,-0.21,1721397186346
3.1,-16.11,19.08,-1.16,0.54,-1.06,1721397186356
-5.89,2.47,41.03,-0.2,-0.26,-1.04,1721397186365
-8.46,6.6,3.55,0.26,0.14,-0.1,1721397186375
-7.67,-5.91,2.59,-0.0,0.23,0.95,1721397186385
0.73,-0.22,8.3,0.16,0.23,1.06,1721397186395
11.03,12.41,10.93,-0.11,0.54,0.57,1721397186405
3.48,-0.82,5.03,-0.54,-0.13,-0.54,1721397186415
1.08,-14.22,21.43,-0.5,0.32,-1.31,1721397186425
-14.83,4.09,7.78,0.33,-0.71,-0.47,1721397186435
-10.62,-8.95,9.51,0.21,0.64,0.54,1721397186445
-3.38,33.06,13.05,0.46,-0.31,1.17,1721397186455
5.49,22.57,8.66,-0.44,0.32,0.92,1721397186465
11.32,-6.59,11.88,-0.7,0.19,0.04,1721397186475
1.54,-23.65,6.41,-0.34,-0.16,-0.95,1721397186485
-4.04,-8.77,13.3,0.06,-0.0,-0.62,1721397186495
-9.78,-0.27,8.22,0.54,-0.05,0.13,1721397186505
-4.67,-1.74,10.56,0.41,0.32,0.85,1721397186515
0.7,31.67,9.0,0.22,-0.05,0.76,1721397186525
8.2,2.91,8.99,-0.19,0.13,0.41,1721397186535
4.98,-9.98,11.15,-0.42,0.02,-0.09,1721397186545
1.47,-14.89,11.18,-0.08,0.01,-0.42,1721397186555
-6.03,4.77,12.0,0.29,0.02,-0.43,1721397186565
-7.36,10.03,5.51,0.48,0.0,0.24,1721397186575
-5.36,11.57,11.98,0.09,0.39,0.64,1721397186585
4.88,6.69,13.14,-0.11,0.16,0.56,1721397186595
2.92,-0.2,4.17,-0.09,-0.14,0.16,1721397186605
3.21,-18.68,7.15,-0.02,0.21,-0.16,1721397186615
-3.54,-15.35,10.45,0.07,-0.31,-0.29,1721397186625
-5.02,4.97,12.98,0.3,0.19,-0.02,1721397186635
-0.48,6.2,15.72,0.21,0.01,0.4,1721397186645
0.68,-7.2,14.54,-0.3,-0.04,-0.19,1721743312235
-2.32,4.58,17.65,0.07,-0.07,-0.12,1721743312245
-1.46,3.33,3.16,-0.04,-0.13,0.1,1721743312255
-1.48,0.42,9.83,-0.14,0.13,0.22,1721743312265
3.44,2.43,11.43,-0.04,0.01,0.27,1721743312275
3.63,4.58,9.05,-0.22,-0.01,-0.05,1721743312285
2.11,-4.62,10.28,-0.41,-0.02,-0.44,1721743312295
-3.01,-9.93,17.51,-0.34,-0.1,-0.34,1721743312305
-4.23,1.94,11.88,0.03,-0.02,0.08,1721743312315
-1.3,6.82,4.02,0.04,0.0,0.24,1721743312325
0.4,-2.53,6.25,-0.24,-0.03,0.16,1721743312335
0.66,0.69,28.58,-0.24,0.27,-0.15,1721743312345
-1.18,6.01,11.2,0.26,-0.5,-0.15,1721743312355
0.43,2.76,-6.72,-0.01,0.23,-0.02,1721743312365
0.32,-5.04,13.77,-0.24,0.19,0.07,1721743312375
-0.61,2.03,23.02,0.05,-0.08,-0.13,1721743312385
-0.15,2.1,13.0,0.12,-0.09,-0.22,1721743312395
-2.53,1.36,6.38,0.03,-0.08,-0.07,1721743312405
-1.16,2.22,5.99,0.18,0.07,0.14,1721743312415
2.32,0.45,6.53,0.11,0.13,-0.03,1721743312425
1.13,-3.4,7.36,0.11,-0.03,-0.3,1721743312435
-2.68,-1.97,9.04,0.13,0.05,-0.38,1721743312445
-4.95,-1.58,8.81,0.04,-0.02,-0.09,1721743312455
-2.83,7.2,22.57,0.1,0.04,0.15,1721743312470
0.34,4.7,15.03,0.24,-0.27,0.14,1721743312475
2.31,7.07,1.79,0.27,0.19,-0.05,1721743312485
1.7,2.18,5.64,0.09,-0.01,-0.24,1721743312495
-2.9,7.06,13.77,0.11,0.05,-0.33,1721743312505
-1.91,-5.23,8.22,-0.05,-0.1,-0.23,1721743312515
-4.98,-13.31,4.17,-0.14,-0.11,-0.1,1721743312525
-3.42,3.23,11.34,0.17,0.24,0.21,1721743312535
2.1,4.17,7.28,0.05,0.08,0.29,1721743312545
2.07,4.23,15.89,-0.06,0.13,-0.16,1721743312555
0.4,1.96,12.17,0.12,-0.16,-0.36,1721743312565
-2.53,-4.38,6.55,-0.16,-0.03,-0.3,1721743312575
-3.14,0.22,18.09,-0.14,0.16,-0.13,1721743312585
-0.48,4.19,13.14,0.13,-0.11,0.03,1721743312595
-0.86,-1.22,6.26,-0.01,0.0,-0.04,1721743312605
-2.57,-0.5,11.4,0.05,0.1,-0.07,1721743312615
-1.78,-0.06,9.22,0.04,-0.04,0.16,1721743312625
-0.55,2.92,10.53,-0.02,0.0,0.18,1721743312635
0.39,2.49,6.67,0.1,-0.14,0.05,1721743312645
1.1,3.25,8.67,0.08,0.06,0.01,1721743312655
0.18,-1.03,6.54,-0.01,-0.2,0.05,1721743312665
-0.52,-7.11,13.12,-0.33,0.14,0.05,1721743312675
-1.48,1.13,23.65,-0.1,0.05,-0.01,1721743312685
-2.98,7.21,10.56,0.23,-0.24,-0.08,1721743312695
-0.04,0.12,4.6,0.04,-0.11,0.4,1721743312705
2.32,3.91,4.71,0.15,-0.04,0.49,1721743312715
7.04,0.85,11.02,-0.08,0.23,-0.06,1721743312725
0.68,5.88,15.42,0.13,-0.33,-0.32,1721743312735
-1.49,-4.08,5.76,0.04,-0.1,-0.24,1721743312745
-4.34,-2.99,12.84,-0.16,0.05,0.08,1721743312755
-2.33,4.82,15.84,0.01,-0.01,0.32,1721743312765
2.37,-1.33,9.83,-0.14,-0.12,0.26,1721743312775
0.55,1.36,9.07,0.05,-0.2,-0.02,1721743312785
1.45,-0.71,5.7,0.02,0.05,-0.12,1721743312795
-2.73,1.65,8.77,0.06,-0.17,0.01,1721743312805
-0.81,1.07,12.27,0.02,0.14,0.04,1721743312814
-2.89,3.26,10.74,0.1,-0.29,0.08,1721743312824
-0.37,-3.81,8.76,-0.16,0.06,0.09,1721743312834
0.0,-5.0,18.28,-0.17,-0.06,0.12,1721743312844
-1.14,4.54,13.88,0.06,-0.2,0.02,1721743312854
-0.29,7.33,5.74,0.09,-0.09,-0.07,1721743312864
-0.93,-2.59,3.96,-0.1,-0.2,-0.06,1721743312874
-1.19,-1.63,11.78,-0.08,0.07,-0.02,1721743312884
-1.87,5.6,10.8,0.05,-0.25,0.12,1721743312894
0.48,-3.36,5.32,-0.27,-0.03,0.1,1721743312904
-0.17,-7.13,14.8,-0.26,-0.08,0.05,1721743312914
-0.53,4.25,14.03,-0.0,-0.14,0.04,1721743312924
0.35,3.45,9.33,-0.18,-0.14,-0.03,1721743312933
-1.7,0.66,13.51,-0.23,-0.17,-0.06,1721743312943
0.34,-1.63,14.04,-0.1,-0.14,-0.06,1721743312952
-0.04,0.57,7.84,-0.0,-0.27,0.01,1721743312962
0.93,3.31,8.93,0.07,0.04,0.01,1721743312972
0.62,0.93,8.59,0.14,-0.18,0.03,1721743312982
-1.37,4.59,7.5,0.16,-0.09,-0.04,1721743312992
0.82,-2.05,8.27,0.03,-0.01,-0.02,1721743313002
-0.55,-1.13,15.64,-0.06,-0.08,-0.01,1721743313012
-0.99,4.84,10.07,0.2,-0.21,0.01,1721743313022
1.02,1.5,4.0,0.07,-0.03,0.01,1721743313032
1.7,-2.18,9.48,-0.04,-0.03,-0.08,1721743313042
1.08,0.04,15.86,0.04,-0.03,-0.31,1721743313052
-1.69,7.99,9.76,0.17,-0.22,-0.2,1721743313062
0.21,-0.06,4.94,-0.21,0.07,-0.07,1721743313072
-1.38,-8.66,18.43,-0.35,-0.05,-0.15,1721743313082
-2.66,-0.37,15.03,0.14,-0.24,-0.15,1721743313092
1.92,-2.14,1.64,0.07,0.16,-0.14,1721743313102
-2.07,-1.85,17.28,-0.06,0.06,-0.1,1721743313112
-2.11,9.92,17.81,0.44,-0.17,0.17,1721743313122
5.43,4.53,6.17,0.12,0.2,0.2,1721743313132
3.77,-9.04,9.77,-0.17,-0.09,-0.09,1721743313142
0.41,-4.88,11.4,0.16,0.03,-0.59,1721743313152
-1.19,0.93,6.96,0.27,-0.09,-0.5,1721743313162
-4.04,2.47,5.61,0.22,0.02,-0.14,1721743313172
-2.03,7.06,10.12,0.26,0.22,-0.0,1721743313182
1.09,-1.2,6.19,-0.01,-0.08,0.01,1721743313192
0.7,-7.73,14.73,-0.24,0.21,-0.25,1721743313202
-1.71,-5.06,15.38,0.06,-0.14,-0.26,1721743313212
-1.73,9.81,12.31,0.25,0.22,-0.04,1721743313222
2.55,7.1,4.47,0.17,-0.02,0.12,1721743313232
2.05,-0.61,8.7,-0.05,0.17,-0.26,1721743313242
1.42,-5.3,22.47,-0.08,0.2,-0.65,1721743313252
-4.15,-1.41,11.62,0.25,-0.29,-0.41,1721743313262
-3.63,6.83,7.4,0.27,0.44,-0.05,1721743313272
0.39,3.45,5.33,0.28,0.02,0.22,1721743313282
0.58,4.43,1.46,0.29,0.28,-0.02,1721743313291
4.28,-2.49,9.59,-0.08,0.2,-0.3,1721743313300
-4.96,6.05,22.42,0.03,-0.03,-0.49,1721743313310
-3.56,0.85,10.43,0.02,0.01,-0.21,1721743313320
-0.74,-1.31,7.47,-0.03,0.2,0.09,1721743313330
4.1,1.36,4.21,0.08,0.16,0.01,1721743313340
3.57,4.71,3.79,0.07,0.1,-0.33,1721743313350
-0.57,4.02,10.1,0.01,0.19,-0.62,1721743313360
-4.53,-0.58,19.52,0.03,0.08,-0.53,1721743313370
-7.46,-1.36,12.66,0.16,-0.14,-0.06,1721743313380
-1.41,0.07,6.18,-0.04,0.29,0.29,1721743313390
3.46,3.83,5.63,-0.02,0.14,0.21,1721743313400
5.89,-1.58,8.13,-0.14,0.28,-0.34,1721743313410
0.46,-3.2,16.5,0.06,0.01,-0.74,1721743313420
-5.22,-2.01,11.09,0.1,-0.06,-0.45,1721743313430
-5.39,2.28,10.36,-0.15,0.29,0.08,1721743313440
1.05,1.49,5.91,-0.11,0.18,0.31,1721743313450
3.6,-3.48,2.81,-0.29,0.2,-0.11,1721743313460
0.49,-2.35,11.93,-0.15,0.14,-0.54,1721743313470
-2.97,-1.75,11.3,-0.04,0.06,-0.54,1721743313480
-6.6,-0.31,10.57,-0.29,0.11,-0.17,1721743313489
-3.74,-6.56,24.04,-0.52,0.26,0.16,1721743313499
-0.67,0.54,20.38,-0.07,-0.06,0.24,1721743313509
4.97,6.48,-1.81,0.0,0.1,-0.01,1721743313519
3.98,0.72,3.42,-0.29,0.17,-0.31,1721743313529
-0.65,2.48,15.08,-0.07,0.13,-0.65,1721743313539
-4.41,3.0,9.19,0.17,-0.06,-0.47,1721743313548
-5.88,-1.85,6.05,-0.16,0.17,-0.06,1721743313558
-3.89,2.25,12.87,-0.11,0.21,0.35,1721743313568
2.53,-2.67,7.81,-0.14,0.17,0.38,1721743313578
3.82,-0.4,11.11,-0.15,0.25,-0.05,1721743313588
1.38,1.01,11.99,0.05,-0.03,-0.38,1721743313598
-2.61,-1.31,8.89,-0.0,-0.03,-0.24,1721743313608
-1.72,3.11,17.94,-0.02,0.37,0.01,1721743313618
-1.36,6.82,15.03,0.14,0.02,0.03,1721743313628
-0.91,5.28,5.27,0.15,0.07,0.06,1721743313638
0.81,-4.64,7.0,0.02,0.25,-0.03,1721743313648
-1.68,1.17,11.7,0.23,0.02,-0.05,1721743313658
-0.88,4.98,11.8,0.27,0.2,-0.03,1721743313668
-1.3,1.14,11.55,0.12,0.01,0.02,1721743313678
-3.01,3.5,9.07,0.18,0.02,0.06,1721743313688
0.3,2.55,5.9,0.13,0.09,0.15,1721743313698
1.87,-2.72,10.43,-0.02,0.16,0.06,1721743313708
0.41,-1.45,8.91,0.18,-0.05,-0.09,1721743313718
-1.47,-3.13,7.49,0.06,0.12,-0.13,1721743313728
-3.45,-0.71,13.42,0.0,0.1,0.02,1721743313738
-1.54,2.72,17.74,0.03,0.17,0.15,1721743313748
-0.53,6.32,14.43,0.05,-0.07,0.16,1721743313758
-0.27,0.31,6.93,0.0,-0.01,0.06,1721743313768
0.42,-4.22,6.49,0.04,0.02,0.04,1721743313778
-0.37,-4.2,7.96,0.03,-0.07,0.09,1721743313788
-2.18,4.74,10.09,0.16,0.08,0.09,1721743313798
0.19,-0.11,7.99,0.05,0.02,0.11,1721743313808
-1.72,1.09,11.57,-0.01,-0.08,0.09,1721743313818
0.24,-0.9,7.69,0.0,0.0,0.13,1721743313828
0.72,-2.1,7.55,-0.08,-0.02,0.13,1721743313838
0.38,2.31,10.25,-0.01,0.0,0.03,1721743313848
-0.48,3.17,11.03,0.03,-0.11,-0.02,1721743313858
-1.22,-0.17,9.19,-0.05,-0.1,0.11,1721743313868
0.4,-3.41,16.29,-0.27,0.13,0.14,1721743313878
0.17,5.77,20.34,-0.04,-0.11,0.13,1721743313888
1.91,4.34,9.06,-0.04,-0.15,0.06,1721743313898
1.64,0.25,9.29,-0.09,-0.06,-0.02,1721743313908
0.58,0.64,11.18,0.07,-0.02,-0.09,1721743313918
-1.37,1.33,6.43,0.1,-0.16,-0.01,1721743313928
-3.02,0.42,9.99,0.02,0.02,0.04,1721743313938
-2.48,1.85,14.87,0.08,-0.03,0.19,1721743313948
-1.19,5.64,10.17,0.22,-0.11,0.24,1721743313958
1.35,-1.79,5.9,-0.01,-0.07,0.09,1721743313968
-1.16,3.13,13.78,0.04,-0.12,0.05,1721743313978
1.29,0.96,8.81,0.15,-0.14,0.1,1721743313988
0.51,-1.19,8.14,0.08,-0.08,0.08,1721743313998
-1.33,0.93,10.26,0.11,-0.1,-0.02,1721743314008
-2.29,4.64,8.66,0.06,-0.09,-0.01,1721743314018
-1.49,3.62,7.41,-0.03,-0.08,0.08,1721743314028
-0.17,-4.7,6.31,-0.26,-0.13,0.17,1721743314038
-0.33,-4.58,15.06,-0.24,0.02,0.06,1721743314048
-0.27,-2.08,13.39,0.02,-0.3,0.01,1721743314058
0.33,-3.92,6.8,-0.11,-0.15,-0.01,1721743314068
-0.58,-0.49,15.73,-0.13,-0.0,0.06,1721743314078
0.28,1.46,12.59,0.07,-0.23,0.08,1721743314088
0.19,3.0,3.11,0.06,-0.2,-0.03,1721743314098
1.64,-2.09,5.58,-0.17,0.02,-0.14,1721743314108
-1.59,0.03,13.92,-0.08,-0.22,-0.09,1721743314118
-1.19,2.47,11.91,-0.01,-0.04,-0.08,1721743314128
-1.67,1.02,8.91,-0.13,-0.25,-0.0,1721743314137
0.11,-2.04,8.14,-0.23,-0.07,0.07,1721743314146
0.42,-2.36,8.62,-0.21,-0.16,0.11,1721743314156
1.95,-1.73,14.11,-0.27,0.08,-0.09,1721743314166
0.53,1.49,11.99,-0.01,-0.27,-0.11,1721743314176
-0.35,-0.53,4.36,-0.15,-0.06,-0.09,1721743314186
-1.26,1.99,13.66,-0.22,0.02,-0.12,1721743314196
1.0,-2.03,15.29,-0.14,-0.13,-0.09,1721743314206
-0.85,3.63,15.8,-0.13,-0.09,-0.13,1721743314216
-0.26,10.81,12.82,0.05,-0.06,-0.05,1721743314226
0.86,-0.2,8.04,-0.08,-0.06,-0.06,1721743314236
-0.57,-4.8,10.59,-0.15,0.01,-0.24,1721743314245
-2.12,4.33,9.89,0.12,-0.1,-0.19,1721743314255
0.9,-0.31,5.67,0.05,-0.05,0.11,1721743314265
1.68,-2.17,13.19,-0.02,0.03,0.03,1721743314275
2.21,4.8,11.43,0.27,-0.11,-0.2,1721743314285
1.7,0.69,7.29,0.07,-0.01,-0.36,1721743314295
-2.41,0.4,10.18,0.08,-0.07,-0.44,1721743314305
-2.16,-3.03,9.89,0.06,0.07,-0.3,1721743314315
-2.63,2.66,12.97,0.12,0.07,-0.1,1721743314325
-0.1,-0.33,9.08,0.08,-0.06,-0.08,1721743314335
-0.58,5.26,11.52,0.07,0.02,-0.3,1721743314345
1.41,-3.87,12.25,0.02,-0.0,-0.31,1721743314355
-0.55,-3.92,10.47,0.09,-0.08,-0.15,1721743314365
0.58,4.46,9.62,0.28,0.15,-0.14,1721743314375
1.28,1.64,5.64,0.1,0.03,-0.18,1721743314385
-1.26,-2.05,4.37,0.0,-0.02,-0.23,1721743314395
0.27,-5.01,12.14,-0.13,0.27,-0.4,1721743314405
-1.96,2.17,22.23,0.05,0.0,-0.18,1721743314415
-2.2,7.76,14.6,0.21,0.02,-0.11,1721743314425
0.74,-2.6,5.73,0.0,0.09,-0.05,1721743314435
1.67,-1.08,19.53,-0.09,0.37,-0.11,1721743314445
-0.42,4.55,8.96,0.37,-0.2,-0.38,1721743314455
-2.81,-2.71,2.09,0.11,0.21,-0.61,1721743314465
-2.86,6.9,14.1,0.3,0.19,0.27,1721743314480
0.37,10.78,9.75,0.41,0.13,0.41,1721743314485
5.4,-4.9,3.94,0.0,0.19,-0.06,1721743314495
1.95,-5.32,17.14,0.01,0.17,-0.58,1721743314505
-1.51,0.83,9.45,0.3,-0.08,-0.42,1721743314515
-2.97,5.75,7.87,0.14,0.33,-0.23,1721743314525
-2.43,8.1,15.29,0.31,0.09,-0.12,1721743314535
0.04,0.62,6.11,0.22,0.0,-0.04,1721743314545
1.33,-0.51,3.82,0.02,0.23,-0.07,1721743314554
4.64,-4.4,12.07,-0.2,0.32,-0.32,1721743314564
-0.91,4.68,18.21,0.2,0.02,-0.59,1721743314574
-1.76,2.65,0.79,0.39,0.0,-0.5,1721743314584
-3.69,2.03,0.89,-0.1,0.27,-0.26,1721743314594
-1.93,-3.17,14.83,-0.38,0.3,0.03,1721743314604
1.64,-4.24,21.96,-0.25,0.3,-0.09,1721743314614
0.7,2.97,7.66,0.2,-0.12,-0.35,1721743314624
0.67,-2.54,-0.23,-0.27,0.33,-0.59,1721743314634
-5.52,0.41,15.49,-0.22,0.15,-0.43,1721743314644
-2.79,1.98,9.74,0.12,0.14,-0.02,1721743314654
0.41,-5.78,4.95,-0.42,0.22,0.04,1721743314664
-1.31,-2.97,25.41,-0.4,0.38,-0.23,1721743314674
-0.13,2.39,9.27,0.25,-0.2,-0.13,1721743314684
-0.2,0.75,-10.71,-0.14,0.26,-0.17,1721743314694
-1.24,-6.45,1.59,-0.41,0.29,-0.23,1721743314704
-2.93,-0.34,14.96,-0.17,0.13,-0.17,1721743314714
-2.76,2.43,19.04,-0.26,0.28,-0.14,1721743314724
-1.75,-1.69,17.55,-0.27,0.07,0.01,1721743314734
1.0,4.25,11.95,-0.3,0.2,0.08,1721743314744
3.8,3.64,9.05,-0.33,0.17,-0.01,1721743314754
1.18,-2.89,7.89,-0.29,0.03,-0.4,1721743314764
-2.63,-1.78,16.84,-0.23,0.23,-0.59,1721743314774
-6.63,3.27,16.66,-0.07,-0.04,-0.24,1721743314784
-4.84,2.88,11.46,-0.13,0.27,0.29,1721743314794
0.96,2.12,12.69,-0.1,0.31,0.45,1721743314804
2.29,3.32,12.62,0.07,0.13,0.19,1721743314814
3.28,1.0,9.94,0.22,0.09,-0.2,1721743314824
0.46,0.17,11.22,0.27,0.06,-0.31,1721743314834
-3.15,5.25,11.85,0.37,0.09,-0.14,1721743314844
-3.26,2.16,8.97,0.31,0.12,0.06,1721743314854
-1.9,2.15,9.91,0.35,0.21,0.17,1721743314864
-0.57,-3.04,7.58,0.33,0.12,0.17,1721743314874
-0.7,5.67,9.16,0.39,0.2,0.07,1721743314884
-0.36,1.58,6.99,0.2,0.03,0.01,1721743314894
-2.56,2.5,10.26,0.08,0.16,0.01,1721743314903
-0.82,-2.44,10.42,0.11,0.07,0.17,1721743314913
-0.72,-5.16,7.54,-0.0,0.08,0.19,1721743314923
0.47,-0.08,14.34,-0.05,0.18,0.03,1721743314933
-0.29,-0.53,13.83,0.08,-0.02,-0.05,1721743314943
-2.8,2.79,3.76,0.19,-0.11,-0.05,1721743314953
-1.32,-3.75,3.89,-0.11,0.16,0.04,1721743314962
-2.19,-1.08,18.79,-0.07,0.13,0.14,1721743314972
0.55,4.0,10.59,0.29,-0.1,0.12,1721743314982
0.35,3.95,1.61,-0.01,0.0,-0.03,1721743314992
-1.44,-1.29,10.58,-0.19,0.05,-0.01,1721743315002
-1.48,-5.09,11.68,-0.1,-0.11,0.17,1721743315012
0.79,0.85,10.23,-0.05,0.09,0.23,1721743315022
2.5,1.39,11.81,-0.15,0.02,0.11,1721743315032
1.05,5.04,15.31,-0.03,-0.06,0.02,1721743315042
2.01,1.73,7.2,-0.02,-0.09,-0.07,1721743315052
1.25,-1.92,7.11,-0.21,0.06,-0.07,1721743315062
-0.79,3.1,14.07,-0.06,0.07,-0.09,1721743315072
-1.1,-0.53,9.99,-0.1,-0.06,-0.01,1721743315082
-2.35,0.28,12.61,-0.05,0.12,0.05,1721743315092
-0.62,-0.15,10.1,-0.02,-0.04,0.13,1721743315102
-0.25,3.31,14.84,-0.06,0.02,0.2,1721743315112
1.71,5.02,12.57,0.11,-0.07,0.09,1721743315122
0.96,3.63,6.5,0.13,-0.07,-0.05,1721743315132
-0.23,-0.0,9.67,0.07,0.11,-0.11,1721743315142
-2.8,0.46,8.35,0.13,-0.09,0.07,1721743315152
-2.13,1.84,6.98,0.06,0.15,0.14,1721743315162
-0.59,-1.97,9.71,-0.07,-0.05,0.26,1721743315172
-0.51,0.88,15.79,-0.01,0.13,0.15,1721743315182
1.41,3.51,11.49,0.11,-0.08,-0.05,1721743315192
-0.75,-0.29,5.93,-0.08,-0.15,-0.18,1721743315202
-1.85,-0.62,12.72,-0.1,0.16,-0.09,1721743315212
-1.34,-0.09,11.96,-0.0,-0.12,0.13,1721743315222
-1.6,-0.3,7.39,-0.0,-0.08,0.21,1721743315232
0.98,-1.32,8.51,-0.05,0.1,0.08,1721743315242
0.73,-2.33,10.25,-0.15,-0.09,-0.11,1721743315252
-2.47,0.08,14.37,-0.14,0.03,-0.23,1721743315262
-2.69,0.63,8.21,0.05,-0.19,-0.01,1721743315272
-0.87,0.19,7.63,-0.12,0.12,0.18,1721743315282
0.49,1.78,10.55,0.02,-0.13,0.28,1721743315292
3.6,-1.59,7.85,-0.08,0.13,0.0,1721743315302
1.51,-0.06,12.28,-0.05,-0.08,-0.14,1721743315312
-1.96,4.49,11.94,-0.03,-0.06,-0.11,1721743315322
-1.84,3.68,9.25,-0.12,0.01,-0.09,1721743315332
-1.43,-0.94,9.19,-0.19,-0.09,0.07,1721743315342
0.77,-2.39,9.93,-0.22,0.05,0.14,1721743315352
0.73,-1.81,11.26,-0.17,0.0,0.03,1721743315362
-0.23,1.96,14.03,-0.08,0.06,-0.06,1721743315372
-0.37,-0.87,9.66,-0.0,-0.12,0.07,1721743315382
-0.69,2.24,9.2,0.01,0.01,0.05,1721743315392
2.06,0.34,13.71,0.0,0.08,0.01,1721743315402
-0.13,1.49,12.75,0.06,-0.14,-0.08,1721743315412
-0.28,5.52,13.29,0.12,0.07,-0.13,1721743315422
0.07,-1.02,10.14,0.16,-0.1,-0.06,1721743315432
-1.0,2.27,8.84,0.26,0.12,-0.01,1721743315442
0.84,3.64,6.46,0.34,0.08,-0.1,1721743315452
-1.06,2.98,5.6,0.28,-0.03,-0.07,1721743315462
-0.13,-3.5,6.58,0.18,0.12,-0.06,1721743315472
-0.36,-1.92,9.79,0.14,0.01,-0.08,1721743315482
-1.06,1.62,14.13,0.06,-0.03,0.08,1721743315492
0.86,1.75,14.67,-0.0,0.07,0.12,1721743315502
1.03,-1.22,12.38,-0.01,-0.02,-0.11,1721743315512
0.08,-1.99,12.85,0.05,0.08,-0.22,1721743315522
-1.87,4.82,13.32,0.18,0.02,-0.01,1721743315532
-0.97,2.26,8.93,0.09,0.08,0.0,1721743315542
-0.68,-1.9,5.6,0.16,-0.07,0.04,1721743315552
1.93,-1.39,8.99,0.06,0.23,0.0,1721743315562
0.76,4.22,12.04,0.13,-0.03,-0.01,1721743315572
-0.76,1.2,9.43,0.11,0.03,-0.16,1721743315582
-1.55,-1.54,7.09,0.06,0.02,-0.0,1721743315592
-2.01,-1.21,7.41,-0.04,0.11,0.18,1721743315601
0.25,-0.23,11.32,-0.01,0.13,0.11,1721743315610
-0.51,1.24,8.45,0.05,-0.06,-0.09,1721743315620
-1.33,1.46,7.28,-0.04,0.05,-0.04,1721743315630
0.23,-3.33,14.75,-0.16,0.21,0.01,1721743315640
-0.58,0.82,18.63,0.06,-0.02,-0.02,1721743315650
-0.05,4.14,6.53,0.05,-0.04,-0.0,1721743315660
1.02,4.93,7.1,-0.16,0.23,-0.04,1721743315670
1.9,-4.74,12.41,-0.25,0.06,-0.2,1721743315680
-2.02,-0.16,15.29,-0.02,-0.03,-0.32,1721743315690
-0.86,4.98,8.25,0.07,0.13,-0.14,1721743315700
-0.8,1.62,5.74,-0.23,0.02,0.08,1721743315710
1.07,-4.05,14.61,-0.21,0.24,-0.06,1721743315720
1.67,-1.51,12.51,0.02,-0.03,-0.2,1721743315730
-1.03,1.19,4.51,-0.02,-0.03,-0.17,1721743315740
-1.56,1.41,10.05,-0.1,0.27,-0.26,1721743315750
-2.48,5.98,15.5,0.05,-0.11,-0.12,1721743315760
-1.98,-1.27,8.49,-0.05,-0.02,-0.0,1721743315770
-0.28,-8.39,10.18,-0.27,0.09,0.03,1721743315780
0.85,2.79,17.83,-0.03,0.2,-0.12,1721743315790
0.56,1.38,7.4,0.02,-0.24,-0.11,1721743315800
-1.89,3.95,7.21,-0.0,0.25,-0.26,1721743315810
-0.64,-1.93,8.32,0.02,-0.03,-0.1,1721743315820
-3.02,-0.02,6.57,-0.04,0.02,0.04,1721743315830
1.45,0.74,10.39,-0.08,0.3,0.07,1721743315840
1.07,0.95,12.36,-0.13,-0.04,-0.08,1721743315850
-1.53,-3.37,9.26,-0.15,-0.01,-0.23,1721743315860
-0.79,-0.6,14.06,-0.1,0.17,-0.07,1721743315870
0.6,-1.57,12.56,-0.15,-0.07,0.14,1721743315880
1.43,5.74,18.01,-0.17,0.32,-0.06,1721743315890
1.02,4.63,12.56,0.06,-0.13,-0.22,1721743315900
-2.86,2.37,2.36,0.1,0.07,-0.2,1721743315910
-2.7,1.78,8.94,0.08,0.29,-0.05,1721743315920
-1.41,-1.62,7.31,0.21,-0.08,0.19,1721743315930
0.94,-3.51,8.9,0.05,0.25,0.04,1721743315940
0.11,8.37,18.35,0.2,0.12,-0.03,1721743315950
-0.77,9.0,8.21,0.22,-0.1,-0.02,1721743315960
-0.35,-3.62,5.47,0.0,0.14,-0.1,1721743315970
0.13,-2.72,10.72,0.14,0.1,-0.11,1721743315980
0.27,-3.5,6.47,0.24,-0.02,-0.04,1721743315990
-2.57,-0.69,7.1,0.31,0.12,-0.1,1721743316000
-2.74,2.22,12.29,0.31,0.26,-0.06,1721743316010
-2.45,18.67,17.08,0.31,0.04,0.04,1721743316020
0.6,4.03,5.88,-0.11,-0.09,0.05,1721743316030
1.38,-20.0,9.2,-0.41,0.17,-0.25,1721743316040
-1.12,-3.55,16.02,0.26,-0.06,-0.22,1721743316050
-2.38,3.21,0.94,0.39,0.04,-0.0,1721743316060
-1.52,-1.09,9.91,0.14,0.21,0.09,1721743316070
-1.25,2.14,13.31,0.25,0.0,0.24,1721743316080
2.11,5.15,8.73,0.2,0.16,0.21,1721743316090
3.29,-4.36,10.57,-0.12,0.1,-0.15,1721743316100
-0.84,3.92,15.77,0.13,-0.06,-0.42,1721743316110
-2.2,3.37,5.34,0.34,-0.07,-0.21,1721743316120
-3.35,-5.97,1.05,-0.02,0.06,-0.01,1721743316130
-4.17,-3.19,19.74,-0.23,0.26,0.11,1721743316140
-2.74,8.38,21.44,0.11,-0.06,0.19,1721743316150
0.21,-3.41,4.99,-0.06,-0.08,0.09,1721743316160
-0.35,-5.4,7.96,-0.18,0.01,0.08,1721743316170
-0.73,5.68,7.8,0.15,-0.1,0.14,1721743316180
2.94,3.56,3.63,0.05,0.11,0.07,1721743316190
1.25,-5.8,7.24,-0.14,-0.11,0.05,1721743316200
0.22,-6.93,22.62,-0.21,0.3,-0.16,1721743316210
-1.42,6.28,24.11,0.22,-0.13,-0.1,1721743316220
-1.51,10.31,0.13,0.21,-0.1,-0.02,1721743316230
-0.85,-1.85,3.68,-0.22,0.11,0.05,1721743316240
-0.97,2.52,12.49,0.12,-0.05,0.21,1721743316250
4.02,-1.09,1.18,0.08,0.06,0.14,1721743316260
2.21,-2.69,6.34,-0.17,0.1,-0.19,1721743316270
-2.12,-1.02,14.62,-0.06,-0.04,-0.26,1721743316280
-4.42,4.45,11.43,0.03,0.04,0.08,1721743316290
-1.87,0.46,8.35,-0.13,0.07,0.34,1721743316299
-1.07,-0.22,9.03,-0.14,0.03,0.25,1721743316308
1.94,-0.54,12.37,-0.19,0.07,0.06,1721743316318
0.09,-4.3,18.89,-0.38,-0.08,-0.1,1721743316328
-2.24,2.26,22.86,0.03,-0.05,-0.18,1721743316338
-1.84,3.97,5.3,0.08,-0.22,0.07,1721743316348
-2.01,2.2,7.62,-0.18,0.17,0.2,1721743316358
-0.03,-1.98,11.69,-0.08,-0.09,0.19,1721743316368
-0.69,2.19,6.89,0.07,-0.11,0.09,1721743316378
-0.41,1.46,2.84,0.02,-0.08,0.09,1721743316388
-0.39,-2.44,9.75,-0.15,0.08,0.1,1721743316398
-0.66,-0.55,16.08,-0.03,-0.12,0.13,1721743316408
-0.27,1.87,9.67,0.02,-0.1,0.02,1721743316418
-1.19,-0.55,10.62,-0.11,-0.07,0.09,1721743316428
-0.7,1.77,15.15,-0.11,0.06,0.06,1721743316438
-0.21,0.2,5.69,-0.02,-0.38,0.18,1721743316448
1.1,0.51,8.18,-0.25,0.22,0.12,1721743316458
0.18,1.75,12.75,-0.15,-0.21,-0.02,1721743316468
-2.56,-0.86,9.94,-0.16,-0.18,-0.04,1721743316483
-2.51,-1.21,10.72,-0.16,-0.1,-0.01,1721743316488
-1.9,-3.93,10.07,-0.18,-0.09,0.23,1721743316498
-0.4,1.64,13.66,-0.06,0.04,0.16,1721743316508
2.26,1.1,8.62,0.01,-0.27,0.19,1721743316518
1.61,4.7,9.27,0.0,0.03,0.11,1721743316527
2.85,-0.51,12.93,-0.1,-0.11,0.01,1721743316537
-1.29,-3.15,10.98,-0.07,-0.25,-0.1,1721743316547
-1.07,4.31,9.4,0.1,0.11,-0.2,1721743316557
-1.52,3.4,7.91,0.1,-0.28,0.12,1721743316567
-0.17,-4.24,3.95,-0.08,0.01,0.3,1721743316577
3.47,1.87,12.59,0.08,0.14,0.06,1721743316587
3.14,-3.54,9.7,0.03,-0.27,-0.14,1721743316596
-2.54,-1.24,11.62,-0.05,-0.07,-0.21,1721743316606
-1.87,3.26,14.37,0.11,0.04,0.08,1721743316616
1.26,1.21,10.81,0.04,-0.03,0.21,1721743316626
0.79,-1.49,10.08,0.01,-0.18,0.1,1721743316636
3.62,2.43,14.78,-0.01,0.21,-0.2,1721743316646
1.57,1.35,14.81,0.01,-0.17,-0.37,1721743316656
-3.31,0.76,9.04,0.08,-0.14,-0.19,1721743316666
-0.77,-0.8,8.99,0.09,0.2,-0.02,1721743316676
-0.44,0.91,11.0,0.1,-0.1,0.15,1721743316686
1.7,1.21,7.58,0.1,0.08,0.01,1721743316696
2.52,0.17,11.04,0.0,0.11,-0.26,1721743316706
-1.85,1.24,12.47,0.16,-0.12,-0.39,1721743316716
-2.25,-2.39,11.13,0.04,0.01,-0.06,1721743316726
-1.11,2.92,10.86,0.18,0.09,0.11,1721743316736
2.93,-0.73,10.34,0.15,0.12,-0.17,1721743316746
-1.66,5.1,10.33,0.34,-0.13,-0.31,1721743316756
-0.2,-1.78,8.33,0.17,0.25,-0.31,1721743316766
-4.09,1.06,12.23,0.2,-0.06,-0.17,1721743316776
-1.39,1.21,5.14,0.22,0.11,0.11,1721743316786
1.7,-1.8,7.86,-0.06,0.21,0.11,1721743316796
1.72,5.62,14.81,0.19,0.15,-0.25,1721743316806
1.65,-1.98,7.68,0.09,-0.05,-0.41,1721743316816
-3.55,1.0,8.42,0.1,0.05,-0.2,1721743316826
0.59,-0.95,13.23,-0.0,0.39,-0.19,1721743316836
-2.24,1.46,14.44,0.11,-0.19,-0.02,1721743316846
0.34,2.23,8.94,0.13,0.24,-0.08,1721743316856
1.35,-1.4,8.86,-0.01,0.1,-0.25,1721743316866
-2.8,4.95,13.97,0.11,0.02,-0.35,1721743316876
-1.3,1.71,9.69,0.07,0.07,-0.22,1721743316886
-1.47,-1.54,5.01,-0.01,-0.03,-0.05,1721743316896
1.64,-2.02,11.34,-0.1,0.3,-0.16,1721743316906
0.52,-0.33,12.36,0.09,-0.11,-0.1,1721743316916
0.11,0.11,6.76,0.06,0.18,-0.17,1721743316926
-0.54,2.06,9.91,0.01,0.12,-0.18,1721743316936
-1.6,3.69,10.0,0.09,0.02,-0.19,1721743316946
-1.12,0.45,6.87,-0.01,0.07,-0.13,1721743316956
-0.09,-2.28,9.45,-0.13,0.19,-0.16,1721743316966
0.59,-5.01,10.87,-0.12,0.11,-0.19,1721743316976
-2.49,3.2,10.25,0.05,-0.01,-0.17,1721743316986
0.53,-2.24,8.38,-0.18,0.26,-0.17,1721743316996
-1.13,-0.96,13.12,-0.06,0.03,-0.01,1721743317006
0.75,3.43,9.23,-0.01,0.2,0.02,1721743317016
1.14,3.95,9.05,-0.23,0.15,-0.2,1721743317026
-0.37,1.21,13.55,-0.2,0.07,-0.4,1721743317036
-1.46,-1.32,7.93,-0.15,0.04,-0.24,1721743317046
-1.67,-2.88,10.45,-0.36,0.27,-0.04,1721743317056
-0.3,-0.78,14.8,-0.24,0.17,-0.09,1721743317066
-0.32,-1.57,12.36,-0.13,0.02,-0.12,1721743317075
0.2,1.89,10.92,-0.04,0.23,-0.08,1721743317085
-1.29,9.25,9.34,0.14,0.13,-0.25,1721743317095
-3.07,8.78,8.4,0.09,0.06,-0.19,1721743317105
-0.56,-0.06,9.69,-0.13,0.17,0.0,1721743317115
0.86,-7.39,8.63,-0.14,0.12,0.05,1721743317125
0.24,-4.38,10.76,-0.11,0.24,-0.12,1721743317134
-1.22,-2.8,12.16,-0.08,0.05,-0.13,1721743317144
-2.55,2.12,11.11,0.11,0.19,-0.1,1721743317154
-2.09,2.29,9.03,0.11,0.06,0.04,1721743317164
-2.38,5.59,10.19,0.09,0.12,0.18,1721743317174
1.85,2.43,12.13,-0.0,0.27,0.1,1721743317184
0.07,-4.83,9.9,-0.16,-0.05,-0.07,1721743317193
-1.06,-7.04,10.84,-0.05,0.24,-0.12,1721743317203
-1.56,-2.64,16.09,0.03,0.14,-0.08,1721743317213
-4.83,12.84,13.3,0.3,-0.07,0.09,1721743317223
-0.17,-1.39,8.77,-0.11,0.1,0.16,1721743317233
-0.55,-9.61,11.75,-0.18,-0.03,0.16,1721743317243
0.58,4.6,11.66,0.14,0.22,0.16,1721743317253
0.82,3.95,1.33,0.11,-0.17,0.03,1721743317263
-2.74,-6.03,5.64,-0.22,0.06,-0.11,1721743317273
-2.21,-3.86,21.69,-0.17,0.21,0.16,1721743317283
-0.7,3.72,23.77,-0.03,0.09,0.23,1721743317293
0.49,3.42,12.26,0.03,-0.14,0.12,1721743317303
1.48,2.02,9.5,-0.08,0.12,-0.02,1721743317313
-1.25,9.14,10.11,0.27,-0.12,0.03,1721743317323
-1.02,1.09,-1.77,0.31,-0.09,0.01,1721743317333
-1.86,-10.49,1.23,-0.09,-0.0,0.11,1721743317343
-2.04,0.19,16.63,0.01,0.14,0.26,1721743317353
1.1,7.52,15.98,0.12,0.06,0.27,1721743317363
2.63,5.21,10.13,0.2,-0.03,0.11,1721743317373
2.01,-0.56,3.45,0.14,-0.19,-0.01,1721743317383
2.68,2.92,3.54,0.03,0.11,-0.09,1721743317393
1.87,-8.33,13.64,-0.38,0.12,-0.15,1721743317403
-2.2,-1.09,25.75,0.2,0.03,-0.09,1721743317413
-0.4,5.07,2.95,0.57,-0.19,0.07,1721743317423
-0.75,3.21,1.23,-0.17,0.28,0.04,1721743317433
-3.22,1.24,19.14,-0.04,-0.04,0.03,1721743317443
-1.24,-0.18,12.06,0.12,-0.03,-0.01,1721743317453
-3.53,5.46,10.76,0.03,-0.07,0.02,1721743317463
-2.27,1.22,7.49,-0.1,-0.04,0.13,1721743317473
-1.68,-2.58,13.0,-0.25,0.02,0.17,1721743317483
0.66,-4.75,8.83,-0.06,-0.12,0.2,1721743317493
2.0,-3.44,8.86,-0.26,0.11,0.15,1721743317503
0.15,8.16,18.84,0.06,-0.03,0.06,1721743317513
1.44,5.51,6.91,0.11,-0.2,-0.03,1721743317522
-0.08,1.23,0.73,-0.11,0.01,-0.1,1721743317532
0.03,-3.41,13.25,-0.27,0.18,-0.2,1721743317542
-2.54,-3.06,14.02,0.01,-0.28,-0.14,1721743317552
-3.01,3.55,8.55,0.11,0.11,-0.02,1721743317562
-1.3,3.01,5.51,-0.03,-0.08,0.2,1721743317571
0.3,-3.86,10.19,-0.28,0.19,0.15,1721743317581
0.01,-3.18,12.96,-0.05,-0.15,-0.03,1721743317590
-1.11,0.47,1.89,0.05,-0.1,-0.15,1721743317600
-2.25,-2.4,7.91,-0.19,0.09,0.04,1721743317610
-2.17,5.08,16.53,0.04,-0.02,0.22,1721743317620
1.61,4.83,9.0,-0.15,-0.03,0.08,1721743317630
1.24,-3.02,10.55,-0.57,0.04,-0.1,1721743317640
-2.15,-7.69,22.05,-0.5,-0.0,-0.18,1721743317650
-4.29,1.57,18.32,-0.16,-0.25,0.06,1721743317660
-1.4,8.76,9.14,0.03,-0.1,0.5,1721743317670
5.46,3.66,2.32,0.03,0.21,0.47,1721743317680
4.26,-5.68,6.25,-0.16,-0.05,-0.01,1721743317690
-0.71,9.88,17.22,0.14,-0.01,-0.3,1721743317700
-1.26,6.39,8.48,0.19,-0.22,-0.08,1721743317710
-1.45,0.13,4.58,0.06,0.09,0.02,1721743317720
-0.11,-2.1,10.53,0.09,0.06,0.09,1721743317730
-0.73,0.85,11.6,0.12,-0.09,0.1,1721743317740
0.52,4.94,13.29,0.08,0.1,0.1,1721743317750
2.49,0.87,11.27,0.12,-0.12,0.17,1721743317760
1.76,-1.53,3.51,0.11,-0.04,0.03,1721743317770
2.2,3.43,6.95,0.15,0.19,-0.3,1721743317780
-1.42,-4.71,8.05,0.02,-0.23,-0.18,1721743317790
-4.48,-0.08,16.43,0.0,0.27,-0.03,1721743317800
0.54,0.67,20.28,0.12,0.11,0.19,1721743317810
-0.97,5.63,15.99,0.13,-0.11,0.16,1721743317820
0.96,0.76,7.18,0.08,0.0,0.04,1721743317830
1.19,0.55,4.14,0.11,0.06,-0.16,1721743317840
1.0,-6.5,11.84,-0.01,0.11,-0.21,1721743317850
-2.79,4.33,11.85,0.34,-0.14,-0.05,1721743317860
